Folder: codespace_practice/XRD_graph/XRD_data/Bi2ZnB2O7_XRD

Note: README.md
# codespace_practice
Practice repository for github codespace

現在の状態　materials projectからデータを取り出すためのスクリプトコンテナ
ライブラリ管理状態は、poetryで管理されている
crabnetを使ったNNはこちらにはない

File: Bi2Zn0.8Ga0.2B2O7_2doyaki.txt
2theta,Intensity
10,4
10.18,6
10.36,5
10.54,7
10.72,8
10.9,5
11.08,4
11.26,1
11.44,5
11.62,5
11.8,5
11.98,4
12.16,8
12.34,9
12.52,6
12.7,6
12.88,3
13.06,5
13.24,8
13.42,2
13.6,4
13.78,5
13.96,8
14.14,4
14.32,5
14.5,5
14.68,6
14.86,6
15.04,5
15.22,3
15.4,6
15.58,2
15.76,7
15.94,3
16.12,6
16.3,7
16.48,5
16.66,1
16.84,9
17.02,6
17.2,7
17.38,5
17.56,6
17.74,12
17.92,34
18.1,67
18.28,9
18.46,7
18.64,7
18.82,6
19,6
19.18,8
19.36,4
19.54,7
19.72,5
19.9,6
20.08,6
20.26,5
20.44,6
20.62,4
20.8,9
20.98,6
21.16,8
21.34,10
21.52,7
21.7,8
21.88,5
22.06,10
22.24,7
22.42,4
22.6,8
22.78,11
22.96,38
23.14,10
23.32,4
23.5,7
23.68,6
23.86,4
24.04,4
24.22,11
24.4,13
24.58,22
24.76,30
24.94,9
25.12,9
25.3,5
25.48,40
25.66,37
25.84,33
26.02,19
26.2,13
26.38,7
26.56,7
26.74,7
26.92,3
27.1,4
27.28,16
27.46,18
27.64,75
27.82,101
28,10
28.18,11
28.36,7
28.54,4
28.72,8
28.9,16
29.08,12
29.26,50
29.44,163
29.62,14
29.8,10
29.98,6
30.16,9
30.34,33
30.52,43
30.7,10
30.88,7
31.06,6
31.24,11
31.42,75
31.6,60
31.78,76
31.96,25
32.14,13
32.32,10
32.5,18
32.68,13
32.86,57
33.04,88
33.22,18
33.4,12
33.58,9
33.76,4
33.94,4
34.12,7
34.3,7
34.48,10
34.66,17
34.84,9
35.02,6
35.2,6
35.38,10
35.56,10
35.74,11
35.92,8
36.1,9
36.28,14
36.46,12
36.64,29
36.82,34
37,26
37.18,9
37.36,9
37.54,16
37.72,8
37.9,9
38.08,6
38.26,13
38.44,10
38.62,5
38.8,12
38.98,6
39.16,7
39.34,3
39.52,15
39.7,18
39.88,5
40.06,8
40.24,8
40.42,7
40.6,2
40.78,5
40.96,7
41.14,15
41.32,16
41.5,18
41.68,35
41.86,10
42.04,7
42.22,7
42.4,9
42.58,9
42.76,2
42.94,5
43.12,7
43.3,6
43.48,14
43.66,24
43.84,23
44.02,6
44.2,10
44.38,7
44.56,5
44.74,7
44.92,7
45.1,14
45.28,52
45.46,60
45.64,51
45.82,25
46,16
46.18,7
46.36,4
46.54,8
46.72,11
46.9,5
47.08,6
47.26,8
47.44,5
47.62,13
47.8,13
47.98,8
48.16,12
48.34,30
48.52,8
48.7,41
48.88,15
49.06,20
49.24,15
49.42,4
49.6,8
49.78,15
49.96,16
50.14,14
50.32,19
50.5,16
50.68,15
50.86,11
51.04,10
51.22,9
51.4,10
51.58,13
51.76,5
51.94,20
52.12,25
52.3,33
52.48,75
52.66,59
52.84,25
53.02,21
53.2,22
53.38,17
53.56,13
53.74,10
53.92,38
54.1,46
54.28,37
54.46,18
54.64,12
54.82,4
55,7
55.18,10
55.36,9
55.54,14
55.72,43
55.9,31
56.08,21
56.26,19
56.44,19
56.62,16
56.8,22
56.98,17
57.16,17
57.34,16
57.52,12
57.7,14
57.88,3
58.06,11
58.24,8
58.42,8
58.6,6
58.78,15
58.96,16
59.14,8
59.32,8
59.5,7
59.68,3
59.86,7
60,11

File: Bi2ZnB1.6C0.4O7_2doyaki.txt
2theta,Intensity
10,6.66667
10.18,6
10.36,7.33333
10.54,4.66667
10.72,4
10.9,6
11.08,4
11.26,8
11.44,8.66667
11.62,4.66667
11.8,8
11.98,6.66667
12.16,6
12.34,8
12.52,8
12.7,5.33333
12.88,9.33333
13.06,5.33333
13.24,8
13.42,9.33333
13.6,7.33333
13.78,4.66667
13.96,6
14.14,7.33333
14.32,10.6667
14.5,6.66667
14.68,7.33333
14.86,8
15.04,4
15.22,7.33333
15.4,8
15.58,10
15.76,9.33333
15.94,7.33333
16.12,10.6667
16.3,8.66667
16.48,12
16.66,16.6667
16.84,8.66667
17.02,8.66667
17.2,10
17.38,16
17.56,23.3333
17.74,12
17.92,28.6667
18.1,152
18.28,114.667
18.46,14.6667
18.64,12.6667
18.82,12.6667
19,7.33333
19.18,10
19.36,8.66667
19.54,7.33333
19.72,10.6667
19.9,8
20.08,6.66667
20.26,9.33333
20.44,8
20.62,8.66667
20.8,6.66667
20.98,7.33333
21.16,10.6667
21.34,14
21.52,30.6667
21.7,11.3333
21.88,9.33333
22.06,8.66667
22.24,6
22.42,7.33333
22.6,11.3333
22.78,14
22.96,54.6667
23.14,95.3333
23.32,11.3333
23.5,10.6667
23.68,12.6667
23.86,9.33333
24.04,10.6667
24.22,13.3333
24.4,32
24.58,55.3333
24.76,94.6667
24.94,103.333
25.12,23.3333
25.3,12.6667
25.48,35.3333
25.66,136
25.84,74
26.02,112
26.2,33.3333
26.38,13.3333
26.56,10.6667
26.74,10.6667
26.92,14
27.1,15.3333
27.28,16
27.46,26
27.64,82.6667
27.82,518.667
28,194
28.18,36
28.36,20
28.54,23.3333
28.72,16.6667
28.9,11.3333
29.08,19.3333
29.26,34.6667
29.44,249.333
29.62,222
29.8,26.6667
29.98,16
30.16,17.3333
30.34,33.3333
30.52,127.333
30.7,69.3333
30.88,16
31.06,10
31.24,14.6667
31.42,39.3333
31.6,244
31.78,110
31.96,257.333
32.14,32.6667
32.32,20
32.5,52.6667
32.68,30
32.86,60
33.04,356.667
33.22,208
33.4,36.6667
33.58,30.6667
33.76,17.3333
33.94,12.6667
34.12,22
34.3,16
34.48,27.3333
34.66,20.6667
34.84,26
35.02,11.3333
35.2,12
35.38,24.6667
35.56,18.6667
35.74,8.66667
35.92,11.3333
36.1,16.6667
36.28,50
36.46,38
36.64,46
36.82,107.333
37,76
37.18,30.6667
37.36,15.3333
37.54,36
37.72,52.6667
37.9,18.6667
38.08,25.3333
38.26,13.3333
38.44,29.3333
38.62,16
38.8,16
38.98,29.3333
39.16,10
39.34,9.33333
39.52,17.3333
39.7,44
39.88,56.6667
40.06,12.6667
40.24,10.6667
40.42,9.33333
40.6,10.6667
40.78,10
40.96,8
41.14,10.6667
41.32,27.3333
41.5,41.3333
41.68,60
41.86,93.3333
42.04,27.3333
42.22,12
42.4,6
42.58,18
42.76,16.6667
42.94,8.66667
43.12,8
43.3,8.66667
43.48,12
43.66,31.3333
43.84,75.3333
44.02,39.3333
44.2,12.6667
44.38,19.3333
44.56,14.6667
44.74,10
44.92,8.66667
45.1,9.33333
45.28,35.3333
45.46,104
45.64,161.333
45.82,54.6667
46,36.6667
46.18,20
46.36,12
46.54,9.33333
46.72,17.3333
46.9,14
47.08,12
47.26,9.33333
47.44,11.3333
47.62,22
47.8,26.6667
47.98,17.3333
48.16,15.3333
48.34,52.6667
48.52,49.3333
48.7,15.3333
48.88,62.6667
49.06,34
49.24,48
49.42,26.6667
49.6,20
49.78,20.6667
49.96,21.3333
50.14,17.3333
50.32,36
50.5,40.6667
50.68,42.6667
50.86,26
51.04,26
51.22,14.6667
51.4,14.6667
51.58,14.6667
51.76,13.3333
51.94,14.6667
52.12,62
52.3,39.3333
52.48,104.667
52.66,223.333
52.84,117.333
53.02,42.6667
53.2,54.6667
53.38,33.3333
53.56,24.6667
53.74,19.3333
53.92,40
54.1,57.3333
54.28,140.667
54.46,72
54.64,16.6667
54.82,17.3333
55,14
55.18,14
55.36,17.3333
55.54,20
55.72,45.3333
55.9,120.667
56.08,69.3333
56.26,18.6667
56.44,38.6667
56.62,44
56.8,42.6667
56.98,43.3333
57.16,32
57.34,40.6667
57.52,28.6667
57.7,19.3333
57.88,8
58.06,13.3333
58.24,10.6667
58.42,10.6667
58.6,9.33333
58.78,8.66667
58.96,31.3333
59.14,35.3333
59.32,20
59.5,20.6667
59.68,7.33333
59.86,17.3333
60,10

File: Bi2ZnB2O7_2kome_2doyaki.txt
2theta,Intensity
10,5.33333
10.18,2.66667
10.36,4
10.54,8
10.72,2.66667
10.9,4.66667
11.08,5.33333
11.26,4
11.44,7.33333
11.62,3.33333
11.8,7.33333
11.98,4
12.16,10
12.34,7.33333
12.52,5.33333
12.7,6.66667
12.88,7.33333
13.06,4
13.24,9.33333
13.42,7.33333
13.6,5.33333
13.78,7.33333
13.96,5.33333
14.14,6
14.32,5.33333
14.5,6.66667
14.68,5.33333
14.86,6.66667
15.04,3.33333
15.22,6
15.4,9.33333
15.58,3.33333
15.76,10.6667
15.94,23.3333
16.12,5.33333
16.3,8
16.48,4.66667
16.66,5.33333
16.84,4.66667
17.02,6.66667
17.2,10.6667
17.38,12
17.56,10
17.74,12.6667
17.92,37.3333
18.1,38.6667
18.28,10
18.46,6.66667
18.64,6.66667
18.82,8.66667
19,8.66667
19.18,8
19.36,4
19.54,6
19.72,7.33333
19.9,7.33333
20.08,5.33333
20.26,4.66667
20.44,7.33333
20.62,7.33333
20.8,14
20.98,4.66667
21.16,4.66667
21.34,8
21.52,5.33333
21.7,6
21.88,9.33333
22.06,12
22.24,17.3333
22.42,26.6667
22.6,14
22.78,45.3333
22.96,30.6667
23.14,9.33333
23.32,6.66667
23.5,7.33333
23.68,7.33333
23.86,10
24.04,5.33333
24.22,11.3333
24.4,17.3333
24.58,13.3333
24.76,20
24.94,7.33333
25.12,8.66667
25.3,11.3333
25.48,33.3333
25.66,30
25.84,35.3333
26.02,20.6667
26.2,22
26.38,10.6667
26.56,11.3333
26.74,42
26.92,14
27.1,8
27.28,14
27.46,12
27.64,45.3333
27.82,29.3333
28,18
28.18,14.6667
28.36,28
28.54,124
28.72,109.333
28.9,74.6667
29.08,36
29.26,74
29.44,78.6667
29.62,10.6667
29.8,8.66667
29.98,16.6667
30.16,22
30.34,23.3333
30.52,14.6667
30.7,10.6667
30.88,8.66667
31.06,12
31.24,26
31.42,79.3333
31.6,41.3333
31.78,83.3333
31.96,17.3333
32.14,16
32.32,22.6667
32.5,20
32.68,14
32.86,29.3333
33.04,34
33.22,13.3333
33.4,13.3333
33.58,8
33.76,6.66667
33.94,10.6667
34.12,6
34.3,10
34.48,8.66667
34.66,10.6667
34.84,7.33333
35.02,7.33333
35.2,15.3333
35.38,18.6667
35.56,24
35.74,18
35.92,24
36.1,28.6667
36.28,31.3333
36.46,39.3333
36.64,31.3333
36.82,25.3333
37,15.3333
37.18,16.6667
37.36,14.6667
37.54,12.6667
37.72,8
37.9,10.6667
38.08,5.33333
38.26,6
38.44,8
38.62,10
38.8,12
38.98,14
39.16,8.66667
39.34,7.33333
39.52,8.66667
39.7,10
39.88,6.66667
40.06,7.33333
40.24,5.33333
40.42,5.33333
40.6,4.66667
40.78,3.33333
40.96,7.33333
41.14,10
41.32,12
41.5,10.6667
41.68,15.3333
41.86,3.33333
42.04,12
42.22,14
42.4,13.3333
42.58,9.33333
42.76,6.66667
42.94,8
43.12,17.3333
43.3,13.3333
43.48,10.6667
43.66,23.3333
43.84,15.3333
44.02,18
44.2,11.3333
44.38,9.33333
44.56,6.66667
44.74,24.6667
44.92,12.6667
45.1,16
45.28,41.3333
45.46,48.6667
45.64,21.3333
45.82,38.6667
46,20
46.18,9.33333
46.36,12
46.54,10
46.72,8.66667
46.9,14.6667
47.08,12.6667
47.26,9.33333
47.44,12.6667
47.62,15.3333
47.8,12
47.98,12
48.16,16.6667
48.34,18
48.52,28
48.7,32
48.88,16
49.06,26.6667
49.24,22.6667
49.42,32
49.6,14.6667
49.78,16.6667
49.96,18.6667
50.14,38.6667
50.32,28
50.5,20.6667
50.68,22.6667
50.86,9.33333
51.04,11.3333
51.22,7.33333
51.4,12
51.58,8.66667
51.76,12
51.94,24
52.12,18.6667
52.3,19.3333
52.48,40.6667
52.66,30
52.84,19.3333
53.02,20.6667
53.2,22.6667
53.38,14
53.56,15.3333
53.74,12.6667
53.92,26
54.1,32
54.28,24
54.46,9.33333
54.64,11.3333
54.82,8
55,10
55.18,9.33333
55.36,10
55.54,12
55.72,24
55.9,23.3333
56.08,19.3333
56.26,16
56.44,22.6667
56.62,28.6667
56.8,34
56.98,15.3333
57.16,19.3333
57.34,18
57.52,12
57.7,8.66667
57.88,8.66667
58.06,9.33333
58.24,7.33333
58.42,12
58.6,17.3333
58.78,14.6667
58.96,16
59.14,12
59.32,11.3333
59.5,12.6667
59.68,12.6667
59.86,10.6667
60,9.33333

File: Bi2ZnB2O7_3kome.txt
2theta,Intensity
10,7
10.18,8
10.36,10
10.54,4
10.72,4
10.9,4
11.08,7
11.26,4
11.44,10
11.62,3
11.8,9
11.98,8
12.16,5
12.34,8
12.52,11
12.7,9
12.88,6
13.06,11
13.24,5
13.42,8
13.6,5
13.78,2
13.96,8
14.14,6
14.32,8
14.5,7
14.68,6
14.86,8
15.04,6
15.22,15
15.4,8
15.58,7
15.76,13
15.94,18
16.12,13
16.3,7
16.48,6
16.66,14
16.84,7
17.02,13
17.2,11
17.38,16
17.56,17
17.74,15
17.92,83
18.1,259
18.28,37
18.46,15
18.64,11
18.82,7
19,7
19.18,7
19.36,5
19.54,11
19.72,9
19.9,7
20.08,9
20.26,13
20.44,4
20.62,8
20.8,10
20.98,8
21.16,10
21.34,24
21.52,17
21.7,11
21.88,9
22.06,8
22.24,11
22.42,10
22.6,13
22.78,32
22.96,180
23.14,45
23.32,8
23.5,16
23.68,8
23.86,12
24.04,18
24.22,24
24.4,46
24.58,65
24.76,122
24.94,30
25.12,17
25.3,21
25.48,88
25.66,213
25.84,98
26.02,160
26.2,26
26.38,10
26.56,10
26.74,11
26.92,16
27.1,14
27.28,13
27.46,42
27.64,166
27.82,404
28,43
28.18,21
28.36,18
28.54,9
28.72,14
28.9,13
29.08,34
29.26,97
29.44,500
29.62,90
29.8,25
29.98,14
30.16,17
30.34,43
30.52,103
30.7,18
30.88,13
31.06,12
31.24,25
31.42,106
31.6,331
31.78,248
31.96,162
32.14,23
32.32,28
32.5,65
32.68,32
32.86,92
33.04,348
33.22,62
33.4,20
33.58,30
33.76,18
33.94,14
34.12,46
34.3,17
34.48,24
34.66,21
34.84,18
35.02,14
35.2,12
35.38,24
35.56,10
35.74,12
35.92,10
36.1,24
36.28,44
36.46,29
36.64,78
36.82,76
37,109
37.18,14
37.36,16
37.54,51
37.72,25
37.9,26
38.08,16
38.26,17
38.44,35
38.62,16
38.8,29
38.98,33
39.16,14
39.34,10
39.52,18
39.7,46
39.88,13
40.06,6
40.24,3
40.42,12
40.6,12
40.78,8
40.96,10
41.14,23
41.32,19
41.5,49
41.68,75
41.86,61
42.04,16
42.22,10
42.4,15
42.58,18
42.76,11
42.94,8
43.12,5
43.3,10
43.48,14
43.66,54
43.84,71
44.02,19
44.2,16
44.38,22
44.56,10
44.74,10
44.92,13
45.1,14
45.28,132
45.46,127
45.64,140
45.82,46
46,34
46.18,19
46.36,9
46.54,21
46.72,15
46.9,6
47.08,13
47.26,8
47.44,11
47.62,24
47.8,16
47.98,12
48.16,19
48.34,97
48.52,36
48.7,47
48.88,95
49.06,24
49.24,27
49.42,18
49.6,25
49.78,29
49.96,32
50.14,22
50.32,59
50.5,51
50.68,43
50.86,24
51.04,19
51.22,19
51.4,16
51.58,14
51.76,9
51.94,25
52.12,77
52.3,47
52.48,176
52.66,176
52.84,63
53.02,36
53.2,74
53.38,47
53.56,29
53.74,25
53.92,63
54.1,98
54.28,107
54.46,31
54.64,14
54.82,21
55,17
55.18,13
55.36,11
55.54,20
55.72,43
55.9,73
56.08,34
56.26,18
56.44,49
56.62,40
56.8,48
56.98,31
57.16,44
57.34,42
57.52,14
57.7,15
57.88,13
58.06,7
58.24,14
58.42,5
58.6,15
58.78,25
58.96,35
59.14,26
59.32,17
59.5,10
59.68,9
59.86,15
60,13