Folder: codespace_practice/XRD_graph/XRD_data/ICSD

Note: README.md
# codespace_practice
Practice repository for github codespace

現在の状態　materials projectからデータを取り出すためのスクリプトコンテナ
ライブラリ管理状態は、poetryで管理されている
crabnetを使ったNNはこちらにはない

File: B2ZnBi2O7_xy_ICSD_2.csv
2theta,Intensity
0.1,0.0
0.3,0.0
0.5,0.0
0.7,0.0
0.9,0.0
1.1,0.0
1.3,0.0
1.5,0.0
1.7,0.0
1.9,0.0
2.1,0.0
2.3,0.0
2.5,0.0
2.7,0.0
2.9,0.0
3.1,0.0
3.3,0.0
3.5,0.0
3.7,0.0
3.9,0.0
4.1,0.0
4.3,0.0
4.5,0.0
4.7,0.0
4.9,0.0
5.1,0.0
5.3,0.0
5.5,0.0
5.7,0.0
5.9,0.0
6.1,0.0
6.3,0.0
6.5,0.0
6.7,0.0
6.9,0.0
7.1,0.0
7.3,0.0
7.5,0.0
7.7,0.0
7.9,0.0
8.1,0.0
8.3,0.0
8.5,0.0
8.7,0.0
8.9,0.0
9.1,0.0
9.3,0.0
9.5,0.0
9.7,0.0
9.9,0.0
10.1,0.0
10.3,0.0
10.5,0.0
10.7,15.0
10.9,15.0
11.1,0.0
11.3,0.0
11.5,0.0
11.7,0.0
11.9,0.0
12.1,0.0
12.3,0.0
12.5,0.0
12.7,0.0
12.9,0.0
13.1,0.0
13.3,0.0
13.5,0.0
13.7,0.0
13.9,0.0
14.1,0.0
14.3,10.0
14.5,27.0
14.7,2.0
14.9,0.0
15.1,0.0
15.3,0.0
15.5,0.0
15.7,0.0
15.9,3.0
16.1,16.0
16.3,3.0
16.5,15.0
16.7,7.0
16.9,0.0
17.1,0.0
17.3,3.0
17.5,276.0
17.7,726.0
17.9,227.0
18.1,3186.0
18.3,1603.0
18.5,22.0
18.7,0.0
18.9,0.0
19.1,0.0
19.3,0.0
19.5,0.0
19.7,0.0
19.9,0.0
20.1,0.0
20.3,0.0
20.5,0.0
20.7,0.0
20.9,0.0
21.1,10.0
21.3,6.0
21.5,350.0
21.7,2064.0
21.9,308.0
22.1,0.0
22.3,0.0
22.5,0.0
22.7,0.0
22.9,17.0
23.1,1288.0
23.3,2574.0
23.5,164.0
23.7,0.0
23.9,0.0
24.1,18.0
24.3,339.0
24.5,149.0
24.7,5.0
24.9,0.0
25.1,175.0
25.3,2083.0
25.5,1239.0
25.7,38.0
25.9,0.0
26.1,0.0
26.3,0.0
26.5,0.0
26.7,0.0
26.9,1.0
27.1,33.0
27.3,23.0
27.5,0.0
27.7,0.0
27.9,0.0
28.1,71.0
28.3,3452.0
28.5,6151.0
28.7,270.0
28.9,35.0
29.1,655.0
29.3,277.0
29.5,1659.0
29.7,3713.0
29.9,177.0
30.1,49.0
30.3,247.0
30.5,26.0
30.7,0.0
30.9,0.0
31.1,250.0
31.3,3653.0
31.5,1098.0
31.7,0.0
31.9,0.0
32.1,0.0
32.3,55.0
32.5,484.0
32.7,90.0
32.9,6.0
33.1,13.0
33.3,462.0
33.5,1101.0
33.7,163.0
33.9,278.0
34.1,19.0
34.3,8.0
34.5,188.0
34.7,90.0
34.9,1.0
35.1,0.0
35.3,28.0
35.5,457.0
35.7,474.0
35.9,115.0
36.1,0.0
36.3,0.0
36.5,16.0
36.7,894.0
36.9,913.0
37.1,17.0
37.3,15.0
37.5,171.0
37.7,186.0
37.9,32.0
38.1,208.0
38.3,736.0
38.5,136.0
38.7,1.0
38.9,0.0
39.1,0.0
39.3,32.0
39.5,115.0
39.7,14.0
39.9,2.0
40.1,1.0
40.3,25.0
40.5,22.0
40.7,5.0
40.9,20.0
41.1,133.0
41.3,16.0
41.5,76.0
41.7,208.0
41.9,68.0
42.1,191.0
42.3,11.0
42.5,28.0
42.7,101.0
42.9,62.0
43.1,716.0
43.3,151.0
43.5,49.0
43.7,297.0
43.9,1254.0
44.1,699.0
44.3,767.0
44.5,1089.0
44.7,43.0
44.9,18.0
45.1,944.0
45.3,858.0
45.5,20.0
45.7,289.0
45.9,195.0
46.1,2.0
46.3,8.0
46.5,3.0
46.7,208.0
46.9,647.0
47.1,240.0
47.3,44.0
47.5,451.0
47.7,664.0
47.9,24.0
48.1,229.0
48.3,2273.0
48.5,927.0
48.7,9.0
48.9,18.0
49.1,55.0
49.3,2.0
49.5,39.0
49.7,237.0
49.9,412.0
50.1,115.0
50.3,204.0
50.5,962.0
50.7,1151.0
50.9,73.0
51.1,239.0
51.3,99.0
51.5,1.0
51.7,2.0
51.9,123.0
52.1,198.0
52.3,212.0
52.5,7.0
52.7,1.0
52.9,26.0
53.1,56.0
53.3,522.0
53.5,486.0
53.7,225.0
53.9,492.0
54.1,142.0
54.3,28.0
54.5,92.0
54.7,282.0
54.9,128.0
55.1,296.0
55.3,13.0
55.5,3.0
55.7,5.0
55.9,5.0
56.1,44.0
56.3,47.0
56.5,359.0
56.7,219.0
56.9,92.0
57.1,1.0
57.3,0.0
57.5,1.0
57.7,9.0
57.9,2.0
58.1,4.0
58.3,221.0
58.5,362.0
58.7,121.0
58.9,559.0
59.1,648.0
59.3,150.0
59.5,327.0
59.7,119.0
59.9,7.0
60.0,0.0

File: Li2SnO3_xy_ICSD.csv
2theta,Intensity
0.1,0.0
0.3,0.0
0.5,0.0
0.7,0.0
0.9,0.0
1.1,0.0
1.3,0.0
1.5,0.0
1.7,0.0
1.9,0.0
2.1,0.0
2.3,0.0
2.5,0.0
2.7,0.0
2.9,0.0
3.1,0.0
3.3,0.0
3.5,0.0
3.7,0.0
3.9,0.0
4.1,0.0
4.3,0.0
4.5,0.0
4.7,0.0
4.9,0.0
5.1,0.0
5.3,0.0
5.5,0.0
5.7,0.0
5.9,0.0
6.1,0.0
6.3,0.0
6.5,0.0
6.7,0.0
6.9,0.0
7.1,0.0
7.3,0.0
7.5,0.0
7.7,0.0
7.9,0.0
8.1,0.0
8.3,0.0
8.5,0.0
8.7,0.0
8.9,0.0
9.1,0.0
9.3,0.0
9.5,0.0
9.7,0.0
9.9,0.0
10.1,0.0
10.3,0.0
10.5,0.0
10.7,0.0
10.9,0.0
11.1,0.0
11.3,0.0
11.5,0.0
11.7,0.0
11.9,0.0
12.1,0.0
12.3,0.0
12.5,0.0
12.7,0.0
12.9,0.0
13.1,0.0
13.3,0.0
13.5,0.0
13.7,0.0
13.9,0.0
14.1,0.0
14.3,0.0
14.5,0.0
14.7,0.0
14.9,0.0
15.1,0.0
15.3,0.0
15.5,0.0
15.7,0.0
15.9,0.0
16.1,0.0
16.3,0.0
16.5,0.0
16.7,0.0
16.9,0.0
17.1,0.0
17.3,0.0
17.5,0.0
17.7,167.0
17.9,3150.0
18.1,1643.0
18.3,24.0
18.5,0.0
18.7,0.0
18.9,0.0
19.1,19.0
19.3,224.0
19.5,897.0
19.7,611.0
19.9,13.0
20.1,101.0
20.3,335.0
20.5,29.0
20.7,0.0
20.9,0.0
21.1,71.0
21.3,906.0
21.5,294.0
21.7,2.0
21.9,0.0
22.1,0.0
22.3,0.0
22.5,4.0
22.7,165.0
22.9,170.0
23.1,4.0
23.3,0.0
23.5,0.0
23.7,0.0
23.9,0.0
24.1,0.0
24.3,42.0
24.5,601.0
24.7,202.0
24.9,2.0
25.1,0.0
25.3,0.0
25.5,0.0
25.7,0.0
25.9,0.0
26.1,0.0
26.3,24.0
26.5,179.0
26.7,31.0
26.9,0.0
27.1,0.0
27.3,0.0
27.5,0.0
27.7,0.0
27.9,0.0
28.1,0.0
28.3,0.0
28.5,66.0
28.7,423.0
28.9,59.0
29.1,0.0
29.3,0.0
29.5,0.0
29.7,0.0
29.9,0.0
30.1,0.0
30.3,0.0
30.5,0.0
30.7,0.0
30.9,46.0
31.1,93.0
31.3,4.0
31.5,0.0
31.7,0.0
31.9,0.0
32.1,0.0
32.3,0.0
32.5,0.0
32.7,0.0
32.9,0.0
33.1,0.0
33.3,43.0
33.5,272.0
33.7,33.0
33.9,0.0
34.1,39.0
34.3,1419.0
34.5,1095.0
34.7,18.0
34.9,0.0
35.1,0.0
35.3,0.0
35.5,0.0
35.7,11.0
35.9,571.0
36.1,654.0
36.3,227.0
36.5,166.0
36.7,2.0
36.9,0.0
37.1,0.0
37.3,0.0
37.5,0.0
37.7,0.0
37.9,0.0
38.1,0.0
38.3,0.0
38.5,4.0
38.7,134.0
38.9,75.0
39.1,12.0
39.3,113.0
39.5,99.0
39.7,44.0
39.9,22.0
40.1,10.0
40.3,134.0
40.5,31.0
40.7,0.0
40.9,0.0
41.1,28.0
41.3,33.0
41.5,47.0
41.7,227.0
41.9,2743.0
42.1,677.0
42.3,128.0
42.5,6.0
42.7,0.0
42.9,0.0
43.1,0.0
43.3,11.0
43.5,41.0
43.7,3.0
43.9,0.0
44.1,2.0
44.3,84.0
44.5,59.0
44.7,6.0
44.9,115.0
45.1,43.0
45.3,0.0
45.5,0.0
45.7,32.0
45.9,708.0
46.1,270.0
46.3,2.0
46.5,31.0
46.7,18.0
46.9,0.0
47.1,4.0
47.3,34.0
47.5,5.0
47.7,0.0
47.9,0.0
48.1,7.0
48.3,104.0
48.5,24.0
48.7,0.0
48.9,0.0
49.1,0.0
49.3,0.0
49.5,0.0
49.7,0.0
49.9,0.0
50.1,18.0
50.3,123.0
50.5,13.0
50.7,0.0
50.9,0.0
51.1,0.0
51.3,0.0
51.5,0.0
51.7,0.0
51.9,0.0
52.1,1.0
52.3,63.0
52.5,55.0
52.7,55.0
52.9,161.0
53.1,54.0
53.3,37.0
53.5,31.0
53.7,147.0
53.9,14.0
54.1,5.0
54.3,49.0
54.5,28.0
54.7,14.0
54.9,5.0
55.1,120.0
55.3,59.0
55.5,448.0
55.7,330.0
55.9,128.0
56.1,20.0
56.3,48.0
56.5,61.0
56.7,7.0
56.9,64.0
57.1,30.0
57.3,72.0
57.5,73.0
57.7,1.0
57.9,0.0
58.1,0.0
58.3,0.0
58.5,1.0
58.7,30.0
58.9,15.0
59.1,0.0
59.3,10.0
59.5,20.0
59.7,18.0
59.9,1.0
60.0,0.0

File: Li2ZnSn3O8_table_ICSD.csv
H	K	L	2THETA	D-VALUE	MULT	INTENSITY
2	0	0	9.72	9.1024	2	232.6
1	-1	0	9.72	9.1019	2	63.4
1	1	1	13.27	6.6741	2	106.1
1	-1	-1	13.27	6.6741	2	106.1
3	-1	0	16.87	5.2552	2	261.9
0	0	2	18.07	4.9079	2	633.1
3	-1	1	19.16	4.6330	2	288.9
3	-1	-1	19.16	4.6330	2	288.9
0	2	-1	19.16	4.6328	2	263.9
2	2	0	19.51	4.5510	2	259.2
2	0	-2	20.56	4.3200	2	68.3
1	-1	2	20.56	4.3199	2	17.4
1	1	2	20.56	4.3199	2	17.4
2	2	1	21.52	4.1288	2	584.1
2	-2	-1	21.52	4.1288	2	584.1
3	1	2	24.82	3.5869	2	606.3
3	1	-2	24.82	3.5869	2	606.3
0	2	-2	24.82	3.5868	2	694.9
5	-1	0	25.90	3.4404	2	37.1
4	2	0	25.90	3.4403	2	35.8
1	3	0	25.90	3.4401	2	155.5
4	0	-2	26.71	3.3372	2	496.3
2	-2	2	26.71	3.3371	2	106.3
2	2	2	26.71	3.3371	2	106.3
5	1	1	27.47	3.2467	2	84.2
5	-1	1	27.47	3.2467	2	84.2
4	-2	-1	27.47	3.2466	2	87.8
4	-2	1	27.47	3.2466	2	87.8
1	-3	-1	27.47	3.2465	2	0.2
1	3	-1	27.47	3.2465	2	0.2
1	1	-3	29.00	3.0790	2	14.8
1	-1	3	29.00	3.0790	2	14.8
6	0	0	29.44	3.0341	2	356.0
3	3	0	29.44	3.0340	2	347.5
3	-3	-1	30.85	2.8987	2	0.5
3	3	-1	30.85	2.8987	2	0.5
5	-1	-2	31.76	2.8171	2	22.6
5	1	-2	31.76	2.8171	2	22.6
4	-2	2	31.76	2.8171	2	18.6
4	2	-2	31.76	2.8171	2	18.6
1	3	2	31.76	2.8170	2	82.8
1	3	-2	31.76	2.8170	2	82.8
3	1	-3	32.23	2.7776	2	727.7
3	-1	-3	32.23	2.7776	2	727.7
0	2	3	32.23	2.7775	2	747.8
2	2	-3	33.74	2.6566	2	171.3
2	-2	-3	33.74	2.6566	2	171.3
6	-2	0	34.12	2.6276	2	622.7
6	0	-2	34.76	2.5808	2	964.1
3	-3	-2	34.76	2.5807	2	1000.0
3	-3	2	34.76	2.5807	2	1000.0
6	-2	1	35.36	2.5382	2	678.4
6	2	-1	35.36	2.5382	2	678.4
0	4	-1	35.36	2.5381	2	706.0
7	-1	0	35.56	2.5245	2	1.3
5	3	0	35.56	2.5245	2	4.4
2	4	0	35.56	2.5244	2	2.0
0	0	4	36.62	2.4540	2	694.5
7	1	1	36.76	2.4450	2	9.8
7	-1	1	36.76	2.4450	2	9.8
5	-3	-1	36.76	2.4449	2	0.0
5	-3	1	36.76	2.4449	2	0.0
2	-4	-1	36.76	2.4448	2	7.2
2	4	1	36.76	2.4448	2	7.2
5	-1	3	37.95	2.3709	2	30.6
5	1	-3	37.95	2.3709	2	30.6
4	-2	3	37.95	2.3709	2	27.5
4	-2	-3	37.95	2.3709	2	27.5
1	3	-3	37.95	2.3708	2	0.5
1	-3	-3	37.95	2.3708	2	0.5
2	0	4	37.98	2.3694	2	5.7
1	1	4	37.98	2.3693	2	2.4
1	-1	-4	37.98	2.3693	2	2.4
6	2	2	38.88	2.3165	2	126.5
6	2	-2	38.88	2.3165	2	126.5
0	4	-2	38.88	2.3164	2	127.0
4	4	0	39.61	2.2755	2	27.9
7	-1	2	40.17	2.2450	2	1.3
7	1	-2	40.17	2.2450	2	1.3
5	-3	-2	40.17	2.2449	2	7.9
5	3	-2	40.17	2.2449	2	7.9
2	-4	-2	40.17	2.2448	2	1.3
2	-4	2	40.17	2.2448	2	1.3
3	3	-3	40.55	2.2247	2	0.0
3	-3	-3	40.55	2.2247	2	0.0
3	1	4	40.57	2.2235	2	2.5
3	-1	4	40.57	2.2235	2	2.5
0	2	4	40.57	2.2235	2	1.6
4	4	1	40.70	2.2167	2	91.9
4	4	-1	40.70	2.2167	2	91.9
4	0	-4	41.82	2.1600	2	130.4
2	-2	4	41.82	2.1600	2	32.4
2	2	-4	41.82	2.1600	2	32.4
8	-2	0	43.33	2.0882	2	0.1
7	-3	0	43.33	2.0882	2	0.0
1	5	0	43.33	2.0881	2	0.2
8	0	-2	43.85	2.0645	2	94.2
4	-4	2	43.85	2.0644	2	22.0
4	4	2	43.85	2.0644	2	22.0
6	-2	-3	44.21	2.0487	2	225.7
6	2	3	44.21	2.0487	2	225.7
0	4	-3	44.21	2.0487	2	226.7
8	-2	1	44.35	2.0425	2	0.2
8	2	-1	44.35	2.0425	2	0.2
7	-3	-1	44.35	2.0425	2	0.3
7	3	1	44.35	2.0425	2	0.3
1	-5	-1	44.35	2.0424	2	0.3
1	-5	1	44.35	2.0424	2	0.3
7	-1	3	45.37	1.9987	2	4.0
7	1	-3	45.37	1.9987	2	4.0
5	-3	-3	45.37	1.9987	2	0.0
5	3	-3	45.37	1.9987	2	0.0
2	-4	-3	45.38	1.9987	2	4.8
2	-4	3	45.38	1.9987	2	4.8
5	1	-4	45.40	1.9978	2	7.0
5	-1	-4	45.40	1.9978	2	7.0
4	2	-4	45.40	1.9978	2	8.5
4	-2	4	45.40	1.9978	2	8.5
1	3	-4	45.40	1.9978	2	26.5
1	3	4	45.40	1.9978	2	26.5
9	-1	0	45.67	1.9863	2	13.4
6	-4	0	45.68	1.9862	2	19.8
3	5	0	45.68	1.9862	2	29.8
9	-1	1	46.65	1.9468	2	10.5
9	1	1	46.65	1.9468	2	10.5
6	-4	1	46.66	1.9468	2	11.9
6	4	1	46.66	1.9468	2	11.9
3	-5	1	46.66	1.9467	2	12.2
3	-5	-1	46.66	1.9467	2	12.2
8	2	2	47.31	1.9215	2	0.1
8	-2	2	47.31	1.9215	2	0.1
7	-3	-2	47.31	1.9215	2	0.9
7	3	-2	47.31	1.9215	2	0.9
1	-5	2	47.31	1.9214	2	0.5
1	-5	-2	47.31	1.9214	2	0.5
1	-1	5	47.37	1.9190	2	2.7
1	1	-5	47.37	1.9190	2	2.7
6	0	4	47.66	1.9080	2	6.5
3	3	4	47.66	1.9080	2	3.8
3	-3	-4	47.66	1.9080	2	3.8
4	4	-3	48.74	1.8681	2	68.6
4	4	3	48.74	1.8681	2	68.6
9	-1	-2	49.50	1.8412	2	101.1
9	1	-2	49.50	1.8412	2	101.1
6	4	-2	49.51	1.8412	2	71.5
6	-4	-2	49.51	1.8412	2	71.5
3	5	2	49.51	1.8411	2	104.1
3	5	-2	49.51	1.8411	2	104.1
3	-1	5	49.57	1.8390	2	70.4
3	1	-5	49.57	1.8390	2	70.4
0	2	5	49.57	1.8390	2	56.0
10	0	0	50.11	1.8205	2	58.6
5	-5	0	50.11	1.8204	2	14.0
2	2	-5	50.64	1.8026	2	51.3
2	-2	-5	50.64	1.8026	2	51.3
6	2	4	50.92	1.7935	2	196.3
6	2	-4	50.92	1.7935	2	196.3
0	4	4	50.92	1.7934	2	181.9
5	5	-1	51.02	1.7899	2	40.1
5	-5	1	51.02	1.7899	2	40.1
8	2	-3	51.95	1.7603	2	0.1
8	-2	-3	51.95	1.7603	2	0.1
7	3	-3	51.95	1.7602	2	0.1
7	3	3	51.95	1.7602	2	0.1
1	-5	3	51.95	1.7602	2	0.6
1	5	3	51.95	1.7602	2	0.6
7	1	4	51.97	1.7596	2	0.6
7	-1	-4	51.97	1.7596	2	0.6
5	3	4	51.97	1.7596	2	1.1
5	3	-4	51.97	1.7596	2	1.1
2	-4	4	51.97	1.7596	2	0.6
2	4	4	51.97	1.7596	2	0.6
9	-3	0	52.22	1.7517	2	75.0
9	3	1	53.11	1.7245	2	0.8
9	-3	-1	53.11	1.7245	2	0.8
0	6	-1	53.11	1.7244	2	2.0
10	-2	0	53.25	1.7202	2	14.6
8	-4	0	53.25	1.7201	2	14.3
2	6	0	53.25	1.7201	2	58.0
10	0	2	53.70	1.7068	2	33.9
5	-5	2	53.70	1.7068	2	11.6
5	-5	-2	53.70	1.7068	2	11.6
5	1	5	53.76	1.7051	2	13.0
5	-1	-5	53.76	1.7051	2	13.0
4	2	5	53.76	1.7051	2	13.2
4	-2	5	53.76	1.7051	2	13.2
1	3	5	53.76	1.7051	2	0.1
1	3	-5	53.76	1.7051	2	0.1
9	-1	3	54.00	1.6979	2	176.6
9	1	-3	54.00	1.6979	2	176.6
6	-4	3	54.01	1.6979	2	202.5
6	4	-3	54.01	1.6979	2	202.5
3	-5	3	54.01	1.6978	2	169.9
3	-5	-3	54.01	1.6978	2	169.9
10	2	1	54.13	1.6944	2	40.9
10	-2	-1	54.13	1.6944	2	40.9
8	4	-1	54.13	1.6943	2	37.1
8	-4	-1	54.13	1.6943	2	37.1
2	6	1	54.13	1.6943	2	0.6
2	6	-1	54.13	1.6943	2	0.6
8	0	-4	55.03	1.6686	2	62.8
4	4	4	55.04	1.6685	2	15.1
4	-4	4	55.04	1.6685	2	15.1
9	-3	2	55.71	1.6498	2	217.6
9	3	-2	55.71	1.6498	2	217.6
0	6	2	55.72	1.6497	2	206.5
3	3	-5	55.77	1.6482	2	0.5
3	3	5	55.77	1.6482	2	0.5
0	0	6	56.23	1.6360	2	203.4
11	-1	0	56.27	1.6348	2	1.8
7	5	0	56.27	1.6348	2	5.1
4	-6	0	56.27	1.6347	2	11.3
10	2	-2	56.70	1.6234	2	13.2
10	-2	-2	56.70	1.6234	2	13.2
8	4	2	56.70	1.6233	2	10.6
8	-4	-2	56.70	1.6233	2	10.6
2	6	-2	56.71	1.6233	2	45.0
2	6	2	56.71	1.6233	2	45.0
11	-1	-1	57.12	1.6126	2	7.8
11	1	-1	57.12	1.6126	2	7.8
7	-5	1	57.12	1.6126	2	10.5
7	5	1	57.12	1.6126	2	10.5
4	-6	1	57.12	1.6125	2	0.3
4	-6	-1	57.12	1.6125	2	0.3
2	0	-6	57.21	1.6102	2	3.9
1	1	6	57.21	1.6102	2	0.6
1	-1	-6	57.21	1.6102	2	0.6
5	5	3	57.97	1.5908	2	27.7
5	-5	-3	57.97	1.5908	2	27.7
8	2	-4	57.99	1.5903	2	0.1
8	-2	4	57.99	1.5903	2	0.1
7	-3	-4	57.99	1.5903	2	0.2
7	3	4	57.99	1.5903	2	0.2
1	-5	4	57.99	1.5903	2	0.3
1	-5	-4	57.99	1.5903	2	0.3
6	2	-5	58.70	1.5727	2	556.2
6	2	5	58.70	1.5727	2	556.2
0	4	5	58.71	1.5727	2	581.0
3	1	6	59.15	1.5620	2	5.3
3	-1	-6	59.15	1.5620	2	5.3
0	2	-6	59.15	1.5620	2	5.2
11	-1	-2	59.61	1.5510	2	2.5
11	1	-2	59.61	1.5510	2	2.5
7	-5	2	59.61	1.5510	2	4.1
7	5	-2	59.61	1.5510	2	4.1
4	6	-2	59.61	1.5510	2	9.2
4	-6	-2	59.61	1.5510	2	9.2
7	1	-5	59.66	1.5497	2	3.4
7	-1	5	59.66	1.5497	2	3.4
5	-3	-5	59.66	1.5497	2	0.4
5	-3	5	59.66	1.5497	2	0.4
2	-4	5	59.66	1.5497	2	1.5
2	-4	-5	59.66	1.5497	2	1.5
9	-3	-3	59.89	1.5443	2	2.5
9	3	-3	59.89	1.5443	2	2.5
0	6	3	59.89	1.5443	2	0.3
9	-1	-4	59.91	1.5439	2	0.4
9	1	4	59.91	1.5439	2	0.4
6	-4	-4	59.91	1.5439	2	0.3
6	4	-4	59.91	1.5439	2	0.3
3	5	-4	59.91	1.5439	2	0.6
3	5	4	59.91	1.5439	2	0.6

File: Li2ZnSn3O8_xy_ICSD.csv
2theta,Intensity
0.1,0.0
0.3,0.0
0.5,0.0
0.7,0.0
0.9,0.0
1.1,0.0
1.3,0.0
1.5,0.0
1.7,0.0
1.9,0.0
2.1,0.0
2.3,0.0
2.5,0.0
2.7,0.0
2.9,0.0
3.1,0.0
3.3,0.0
3.5,0.0
3.7,0.0
3.9,0.0
4.1,0.0
4.3,0.0
4.5,0.0
4.7,0.0
4.9,0.0
5.1,0.0
5.3,0.0
5.5,0.0
5.7,0.0
5.9,0.0
6.1,0.0
6.3,0.0
6.5,0.0
6.7,0.0
6.9,0.0
7.1,0.0
7.3,0.0
7.5,0.0
7.7,0.0
7.9,0.0
8.1,0.0
8.3,0.0
8.5,0.0
8.7,0.0
8.9,0.0
9.1,0.0
9.3,0.0
9.5,179.0
9.7,1306.0
9.9,318.0
10.1,1.0
10.3,0.0
10.5,0.0
10.7,0.0
10.9,0.0
11.1,0.0
11.3,0.0
11.5,0.0
11.7,0.0
11.9,0.0
12.1,0.0
12.3,0.0
12.5,0.0
12.7,0.0
12.9,5.0
13.1,479.0
13.3,1500.0
13.5,144.0
13.7,0.0
13.9,0.0
14.1,0.0
14.3,0.0
14.5,0.0
14.7,0.0
14.9,0.0
15.1,0.0
15.3,0.0
15.5,0.0
15.7,0.0
15.9,0.0
16.1,0.0
16.3,0.0
16.5,6.0
16.7,813.0
16.9,2884.0
17.1,289.0
17.3,0.0
17.5,0.0
17.7,0.0
17.9,613.0
18.1,2323.0
18.3,242.0
18.5,0.0
18.7,0.0
18.9,324.0
19.1,5523.0
19.3,3360.0
19.5,5587.0
19.7,981.0
19.9,0.0
20.1,0.0
20.3,37.0
20.5,670.0
20.7,318.0
20.9,4.0
21.1,0.0
21.3,928.0
21.5,8732.0
21.7,2089.0
21.9,0.0
22.1,0.0
22.3,0.0
22.5,0.0
22.7,0.0
22.9,0.0
23.1,0.0
23.3,0.0
23.5,0.0
23.7,0.0
23.9,0.0
24.1,0.0
24.3,0.0
24.5,115.0
24.7,7337.0
24.9,11077.0
25.1,395.0
25.3,0.0
25.5,0.0
25.7,278.0
25.9,1769.0
26.1,260.0
26.3,0.0
26.5,647.0
26.7,5461.0
26.9,1044.0
27.1,0.0
27.3,664.0
27.5,2577.0
27.7,223.0
27.9,0.0
28.1,0.0
28.3,0.0
28.5,0.0
28.7,3.0
28.9,145.0
29.1,158.0
29.3,1633.0
29.5,3432.0
29.7,155.0
29.9,0.0
30.1,0.0
30.3,0.0
30.5,0.0
30.7,3.0
30.9,7.0
31.1,0.0
31.3,0.0
31.5,66.0
31.7,1603.0
31.9,882.0
32.1,7856.0
32.3,13446.0
32.5,465.0
32.7,0.0
32.9,0.0
33.1,0.0
33.3,0.0
33.5,168.0
33.7,2527.0
33.9,1349.0
34.1,6717.0
34.3,1450.0
34.5,812.0
34.7,19562.0
34.9,9050.0
35.1,619.0
35.3,13498.0
35.5,6478.0
35.7,82.0
35.9,0.0
36.1,0.0
36.3,18.0
36.5,1382.0
36.7,2216.0
36.9,154.0
37.1,1.0
37.3,0.0
37.5,0.0
37.7,43.0
37.9,892.0
38.1,339.0
38.3,2.0
38.5,0.0
38.7,631.0
38.9,2961.0
39.1,247.0
39.3,8.0
39.5,483.0
39.7,526.0
39.9,14.0
40.1,134.0
40.3,72.0
40.5,228.0
40.7,1500.0
40.9,202.0
41.1,0.0
41.3,0.0
41.5,8.0
41.7,752.0
41.9,1137.0
42.1,29.0
42.3,0.0
42.5,0.0
42.7,0.0
42.9,0.0
43.1,0.0
43.3,2.0
43.5,0.0
43.7,336.0
43.9,1040.0
44.1,3074.0
44.3,3549.0
44.5,72.0
44.7,0.0
44.9,0.0
45.1,10.0
45.3,528.0
45.5,559.0
45.7,502.0
45.9,38.0
46.1,0.0
46.3,0.0
46.5,161.0
46.7,506.0
46.9,25.0
47.1,4.0
47.3,58.0
47.5,51.0
47.7,106.0
47.9,6.0
48.1,0.0
48.3,0.0
48.5,50.0
48.7,1010.0
48.9,314.0
49.1,0.0
49.3,538.0
49.5,5783.0
49.7,1254.0
49.9,42.0
50.1,353.0
50.3,53.0
50.5,307.0
50.7,1100.0
50.9,4956.0
51.1,1272.0
51.3,12.0
51.5,0.0
51.7,1.0
51.9,47.0
52.1,459.0
52.3,656.0
52.5,14.0
52.7,0.0
52.9,3.0
53.1,238.0
53.3,638.0
53.5,96.0
53.7,890.0
53.9,5262.0
54.1,6888.0
54.3,363.0
54.5,0.0
54.7,2.0
54.9,295.0
55.1,608.0
55.3,18.0
55.5,448.0
55.7,5213.0
55.9,874.0
56.1,386.0
56.3,774.0
56.5,146.0
56.7,1130.0
56.9,177.0
57.1,322.0
57.3,78.0
57.5,0.0
57.7,8.0
57.9,345.0
58.1,201.0
58.3,2.0
58.5,1482.0
58.7,13922.0
58.9,1853.0
59.1,117.0
59.3,38.0
59.5,161.0
59.7,256.0
59.9,73.0
60.0,38.0