Folder: codespace_practice/XRD_graph/XRD_data/Li2ZnSn3O8_XRD (part 2)

File: Li2ZnSn3O8_2ndyaki_20241022.txt
2theta,Intensity
10,3.33333
10.18,5.83333
10.36,5.83333
10.54,6.66667
10.72,2.5
10.9,10
11.08,5
11.26,5
11.44,2.5
11.62,6.66667
11.8,3.33333
11.98,4.16667
12.16,6.66667
12.34,5.83333
12.52,7.5
12.7,5.83333
12.88,5.83333
13.06,9.16667
13.24,25
13.42,9.16667
13.6,8.33333
13.78,8.33333
13.96,5
14.14,7.5
14.32,5.83333
14.5,5
14.68,10.8333
14.86,2.5
15.04,6.66667
15.22,15
15.4,5
15.58,7.5
15.76,5.83333
15.94,5.83333
16.12,9.16667
16.3,6.66667
16.48,9.16667
16.66,18.3333
16.84,54.1667
17.02,19.1667
17.2,17.5
17.38,16.6667
17.56,13.3333
17.74,27.5
17.92,78.3333
18.1,29.1667
18.28,14.1667
18.46,9.16667
18.64,12.5
18.82,19.1667
19,75
19.18,168.333
19.36,50
19.54,116.667
19.72,15
19.9,8.33333
20.08,10
20.26,10
20.44,20.8333
20.62,10
20.8,8.33333
20.98,7.5
21.16,10.8333
21.34,40
21.52,169.167
21.7,19.1667
21.88,10.8333
22.06,5.83333
22.24,6.66667
22.42,10.8333
22.6,10
22.78,10
22.96,7.5
23.14,10
23.32,5.83333
23.5,4.16667
23.68,6.66667
23.86,9.16667
24.04,10
24.22,10
24.4,16.6667
24.58,65
24.76,341.667
24.94,32.5
25.12,20.8333
25.3,8.33333
25.48,9.16667
25.66,10
25.84,27.5
26.02,34.1667
26.2,14.1667
26.38,20
26.56,175.833
26.74,134.167
26.92,21.6667
27.1,12.5
27.28,17.5
27.46,60.8333
27.64,20
27.82,10.8333
28,9.16667
28.18,10.8333
28.36,9.16667
28.54,9.16667
28.72,10.8333
28.9,10.8333
29.08,10.8333
29.26,22.5
29.44,84.1667
29.62,24.1667
29.8,14.1667
29.98,10.8333
30.16,9.16667
30.34,7.5
30.52,10.8333
30.7,10.8333
30.88,6.66667
31.06,5.83333
31.24,6.66667
31.42,12.5
31.6,20
31.78,45
31.96,113.333
32.14,348.333
32.32,35.8333
32.5,14.1667
32.68,10.8333
32.86,7.5
33.04,6.66667
33.22,10
33.4,10
33.58,48.3333
33.76,50.8333
33.94,147.5
34.12,160.833
34.3,47.5
34.48,37.5
34.66,400
34.84,217.5
35.02,38.3333
35.2,74.1667
35.38,380
35.56,53.3333
35.74,14.1667
35.92,14.1667
36.1,12.5
36.28,30
36.46,55.8333
36.64,13.3333
36.82,14.1667
37,4.16667
37.18,4.16667
37.36,8.33333
37.54,5
37.72,16.6667
37.9,40.8333
38.08,30
38.26,10.8333
38.44,5
38.62,12.5
38.8,61.6667
38.98,40
39.16,10
39.34,6.66667
39.52,13.3333
39.7,13.3333
39.88,10
40.06,8.33333
40.24,10.8333
40.42,3.33333
40.6,11.6667
40.78,25
40.96,8.33333
41.14,5
41.32,4.16667
41.5,15.8333
41.68,26.6667
41.86,10
42.04,6.66667
42.22,5.83333
42.4,6.66667
42.58,3.33333
42.76,3.33333
42.94,6.66667
43.12,10
43.3,7.5
43.48,1.66667
43.66,10.8333
43.84,21.6667
44.02,83.3333
44.2,89.1667
44.38,10.8333
44.56,6.66667
44.74,4.16667
44.92,5.83333
45.1,12.5
45.28,21.6667
45.46,8.33333
45.64,10.8333
45.82,7.5
46,6.66667
46.18,5.83333
46.36,5.83333
46.54,7.5
46.72,17.5
46.9,7.5
47.08,2.5
47.26,4.16667
47.44,9.16667
47.62,6.66667
47.8,4.16667
47.98,4.16667
48.16,5.83333
48.34,10.8333
48.52,6.66667
48.7,14.1667
48.88,10
49.06,7.5
49.24,24.1667
49.42,88.3333
49.6,56.6667
49.78,6.66667
49.96,7.5
50.14,11.6667
50.32,16.6667
50.5,22.5
50.68,66.6667
50.86,73.3333
51.04,27.5
51.22,7.5
51.4,6.66667
51.58,7.5
51.76,62.5
51.94,75
52.12,22.5
52.3,15.8333
52.48,5.83333
52.66,9.16667
52.84,8.33333
53.02,4.16667
53.2,14.1667
53.38,15.8333
53.56,24.1667
53.74,32.5
53.92,170
54.1,92.5
54.28,19.1667
54.46,4.16667
54.64,6.66667
54.82,38.3333
55,23.3333
55.18,6.66667
55.36,10
55.54,20
55.72,100
55.9,52.5
56.08,12.5
56.26,10
56.44,10
56.62,14.1667
56.8,15.8333
56.98,6.66667
57.16,8.33333
57.34,6.66667
57.52,6.66667
57.7,10
57.88,29.1667
58.06,19.1667
58.24,24.1667
58.42,220.833
58.6,166.667
58.78,22.5
58.96,10.8333
59.14,5
59.32,10.8333
59.5,10
59.68,17.5
59.86,16.6667
60,8.33333

File: Li2ZnSn3O8_20240711.txt
2theta,Intensity
10,5
10.18,5
10.36,5.83333
10.54,1.66667
10.72,8.33333
10.9,5
11.08,5
11.26,4.16667
11.44,3.33333
11.62,3.33333
11.8,5.83333
11.98,5
12.16,5.83333
12.34,5.83333
12.52,5
12.7,6.66667
12.88,5
13.06,9.16667
13.24,4.16667
13.42,3.33333
13.6,6.66667
13.78,10
13.96,5
14.14,2.5
14.32,4.16667
14.5,7.5
14.68,3.33333
14.86,8.33333
15.04,3.33333
15.22,4.16667
15.4,6.66667
15.58,5
15.76,5
15.94,7.5
16.12,5
16.3,9.16667
16.48,7.5
16.66,10.8333
16.84,6.66667
17.02,6.66667
17.2,5
17.38,7.5
17.56,7.5
17.74,8.33333
17.92,10
18.1,5.83333
18.28,5
18.46,5.83333
18.64,6.66667
18.82,9.16667
19,30.8333
19.18,5
19.36,22.5
19.54,7.5
19.72,5.83333
19.9,5
20.08,3.33333
20.26,5.83333
20.44,5.83333
20.62,5.83333
20.8,5
20.98,9.16667
21.16,8.33333
21.34,25.8333
21.52,12.5
21.7,6.66667
21.88,5
22.06,5.83333
22.24,6.66667
22.42,5.83333
22.6,6.66667
22.78,5
22.96,6.66667
23.14,5.83333
23.32,3.33333
23.5,2.5
23.68,5
23.86,4.16667
24.04,5.83333
24.22,5.83333
24.4,10
24.58,52.5
24.76,17.5
24.94,6.66667
25.12,7.5
25.3,4.16667
25.48,5
25.66,6.66667
25.84,8.33333
26.02,7.5
26.2,10
26.38,19.1667
26.56,37.5
26.74,5
26.92,5.83333
27.1,4.16667
27.28,15
27.46,3.33333
27.64,3.33333
27.82,6.66667
28,4.16667
28.18,4.16667
28.36,11.6667
28.54,6.66667
28.72,6.66667
28.9,3.33333
29.08,8.33333
29.26,18.3333
29.44,10.8333
29.62,5.83333
29.8,6.66667
29.98,2.5
30.16,6.66667
30.34,3.33333
30.52,5
30.7,2.5
30.88,2.5
31.06,5
31.24,1.66667
31.42,8.33333
31.6,15
31.78,15
31.96,80
32.14,14.1667
32.32,5
32.5,4.16667
32.68,9.16667
32.86,6.66667
33.04,6.66667
33.22,6.66667
33.4,8.33333
33.58,12.5
33.76,34.1667
33.94,30
34.12,18.3333
34.3,6.66667
34.48,52.5
34.66,75.8333
34.84,12.5
35.02,11.6667
35.2,71.6667
35.38,23.3333
35.56,4.16667
35.74,5.83333
35.92,4.16667
36.1,5
36.28,14.1667
36.46,7.5
36.64,9.16667
36.82,5
37,2.5
37.18,2.5
37.36,5
37.54,6.66667
37.72,11.6667
37.9,13.3333
38.08,5
38.26,5
38.44,5
38.62,9.16667
38.8,14.1667
38.98,10
39.16,5
39.34,5.83333
39.52,9.16667
39.7,3.33333
39.88,3.33333
40.06,4.16667
40.24,5
40.42,6.66667
40.6,12.5
40.78,4.16667
40.96,4.16667
41.14,6.66667
41.32,10
41.5,14.1667
41.68,5
41.86,5.83333
42.04,3.33333
42.22,3.33333
42.4,4.16667
42.58,5.83333
42.76,4.16667
42.94,5.83333
43.12,7.5
43.3,3.33333
43.48,7.5
43.66,11.6667
43.84,10.8333
44.02,26.6667
44.2,5
44.38,5
44.56,5
44.74,5
44.92,5.83333
45.1,7.5
45.28,4.16667
45.46,7.5
45.64,8.33333
45.82,2.5
46,3.33333
46.18,5
46.36,7.5
46.54,10
46.72,4.16667
46.9,3.33333
47.08,7.5
47.26,3.33333
47.44,3.33333
47.62,9.16667
47.8,3.33333
47.98,6.66667
48.16,7.5
48.34,4.16667
48.52,8.33333
48.7,4.16667
48.88,3.33333
49.06,10
49.24,15
49.42,18.3333
49.6,6.66667
49.78,5.83333
49.96,7.5
50.14,5
50.32,8.33333
50.5,16.6667
50.68,21.6667
50.86,10
51.04,4.16667
51.22,6.66667
51.4,5.83333
51.58,15.8333
51.76,20.8333
51.94,11.6667
52.12,10.8333
52.3,4.16667
52.48,5
52.66,5.83333
52.84,6.66667
53.02,5.83333
53.2,8.33333
53.38,9.16667
53.56,7.5
53.74,49.1667
53.92,36.6667
54.1,13.3333
54.28,7.5
54.46,8.33333
54.64,13.3333
54.82,15
55,9.16667
55.18,6.66667
55.36,10
55.54,28.3333
55.72,29.1667
55.9,8.33333
56.08,10
56.26,3.33333
56.44,6.66667
56.62,15
56.8,3.33333
56.98,4.16667
57.16,4.16667
57.34,11.6667
57.52,5.83333
57.7,11.6667
57.88,6.66667
58.06,9.16667
58.24,43.3333
58.42,59.1667
58.6,12.5
58.78,5.83333
58.96,6.66667
59.14,7.5
59.32,6.66667
59.5,8.33333
59.68,3.33333
59.86,5.83333
60,3.33333