Folder: codespace_practice/XRD_graph/XRD_data/Li2ZnSn3O8_XRD

Note: README.md
# codespace_practice
Practice repository for github codespace

現在の状態　materials projectからデータを取り出すためのスクリプトコンテナ
ライブラリ管理状態は、poetryで管理されている
crabnetを使ったNNはこちらにはない

File: Li1.8Ca0.2ZnSn3O8_20240909.txt
2theta,Intensity
10,3.33333
10.18,5
10.36,4.16667
10.54,8.33333
10.72,4.16667
10.9,7.5
11.08,5
11.26,4.16667
11.44,5
11.62,7.5
11.8,6.66667
11.98,7.5
12.16,5.83333
12.34,4.16667
12.52,8.33333
12.7,6.66667
12.88,5
13.06,7.5
13.24,6.66667
13.42,3.33333
13.6,2.5
13.78,3.33333
13.96,3.33333
14.14,5
14.32,6.66667
14.5,7.5
14.68,8.33333
14.86,4.16667
15.04,11.6667
15.22,9.16667
15.4,2.5
15.58,6.66667
15.76,5
15.94,5
16.12,6.66667
16.3,2.5
16.48,8.33333
16.66,11.6667
16.84,5.83333
17.02,4.16667
17.2,5
17.38,5.83333
17.56,5.83333
17.74,7.5
17.92,10.8333
18.1,5
18.28,5.83333
18.46,6.66667
18.64,5.83333
18.82,9.16667
19,13.3333
19.18,4.16667
19.36,12.5
19.54,7.5
19.72,4.16667
19.9,10
20.08,5.83333
20.26,5
20.44,5
20.62,5
20.8,5.83333
20.98,5
21.16,5.83333
21.34,15
21.52,9.16667
21.7,7.5
21.88,4.16667
22.06,5.83333
22.24,7.5
22.42,5.83333
22.6,6.66667
22.78,8.33333
22.96,4.16667
23.14,5
23.32,5
23.5,5.83333
23.68,5.83333
23.86,3.33333
24.04,4.16667
24.22,5.83333
24.4,10
24.58,10.8333
24.76,14.1667
24.94,5
25.12,6.66667
25.3,7.5
25.48,4.16667
25.66,8.33333
25.84,7.5
26.02,5.83333
26.2,9.16667
26.38,10.8333
26.56,30
26.74,10
26.92,4.16667
27.1,9.16667
27.28,9.16667
27.46,10.8333
27.64,1.66667
27.82,4.16667
28,3.33333
28.18,5
28.36,5
28.54,3.33333
28.72,6.66667
28.9,5
29.08,5.83333
29.26,4.16667
29.44,9.16667
29.62,5.83333
29.8,5.83333
29.98,2.5
30.16,7.5
30.34,5
30.52,7.5
30.7,4.16667
30.88,4.16667
31.06,3.33333
31.24,5.83333
31.42,8.33333
31.6,9.16667
31.78,6.66667
31.96,32.5
32.14,13.3333
32.32,8.33333
32.5,5.83333
32.68,5
32.86,7.5
33.04,3.33333
33.22,5
33.4,5.83333
33.58,11.6667
33.76,10.8333
33.94,17.5
34.12,15
34.3,8.33333
34.48,22.5
34.66,46.6667
34.84,6.66667
35.02,8.33333
35.2,30
35.38,12.5
35.56,10
35.74,3.33333
35.92,4.16667
36.1,1.66667
36.28,8.33333
36.46,5
36.64,5
36.82,3.33333
37,4.16667
37.18,4.16667
37.36,3.33333
37.54,6.66667
37.72,8.33333
37.9,8.33333
38.08,3.33333
38.26,3.33333
38.44,2.5
38.62,10
38.8,10.8333
38.98,5.83333
39.16,3.33333
39.34,4.16667
39.52,5
39.7,5.83333
39.88,3.33333
40.06,7.5
40.24,3.33333
40.42,5
40.6,5
40.78,5.83333
40.96,2.5
41.14,5
41.32,5
41.5,4.16667
41.68,5
41.86,2.5
42.04,3.33333
42.22,2.5
42.4,6.66667
42.58,5
42.76,4.16667
42.94,6.66667
43.12,5.83333
43.3,4.16667
43.48,4.16667
43.66,11.6667
43.84,8.33333
44.02,19.1667
44.2,5.83333
44.38,5
44.56,5
44.74,6.66667
44.92,4.16667
45.1,5.83333
45.28,2.5
45.46,5.83333
45.64,5
45.82,6.66667
46,5
46.18,2.5
46.36,7.5
46.54,6.66667
46.72,3.33333
46.9,5
47.08,2.5
47.26,7.5
47.44,5
47.62,5.83333
47.8,2.5
47.98,5
48.16,5
48.34,3.33333
48.52,7.5
48.7,8.33333
48.88,5
49.06,6.66667
49.24,12.5
49.42,16.6667
49.6,8.33333
49.78,6.66667
49.96,6.66667
50.14,7.5
50.32,10
50.5,5.83333
50.68,19.1667
50.86,11.6667
51.04,5.83333
51.22,5.83333
51.4,4.16667
51.58,1.66667
51.76,15
51.94,10
52.12,6.66667
52.3,5
52.48,5
52.66,7.5
52.84,5
53.02,4.16667
53.2,4.16667
53.38,5.83333
53.56,7.5
53.74,21.6667
53.92,17.5
54.1,11.6667
54.28,5.83333
54.46,4.16667
54.64,6.66667
54.82,10
55,5.83333
55.18,5
55.36,5.83333
55.54,19.1667
55.72,21.6667
55.9,4.16667
56.08,6.66667
56.26,3.33333
56.44,10.8333
56.62,8.33333
56.8,8.33333
56.98,9.16667
57.16,8.33333
57.34,7.5
57.52,7.5
57.7,12.5
57.88,10.8333
58.06,7.5
58.24,20
58.42,41.6667
58.6,18.3333
58.78,6.66667
58.96,5
59.14,10.8333
59.32,5
59.5,6.66667
59.68,7.5
59.86,7.5
60,5

File: Li2.5Zn0.5Ga0.5Sn3O8_1doyaki_20241211.txt
2theta,Intensity
10,6.66667
10.18,5
10.36,4.16667
10.54,5
10.72,5
10.9,9.16667
11.08,5.83333
11.26,5
11.44,4.16667
11.62,6.66667
11.8,3.33333
11.98,4.16667
12.16,2.5
12.34,5
12.52,10.8333
12.7,9.16667
12.88,7.5
13.06,11.6667
13.24,23.3333
13.42,8.33333
13.6,8.33333
13.78,5
13.96,9.16667
14.14,5
14.32,3.33333
14.5,5
14.68,4.16667
14.86,6.66667
15.04,2.5
15.22,2.5
15.4,12.5
15.58,7.5
15.76,7.5
15.94,4.16667
16.12,13.3333
16.3,9.16667
16.48,6.66667
16.66,11.6667
16.84,26.6667
17.02,47.5
17.2,14.1667
17.38,17.5
17.56,15.8333
17.74,16.6667
17.92,72.5
18.1,50
18.28,14.1667
18.46,13.3333
18.64,12.5
18.82,11.6667
19,36.6667
19.18,252.5
19.36,49.1667
19.54,122.5
19.72,40
19.9,10
20.08,8.33333
20.26,13.3333
20.44,43.3333
20.62,18.3333
20.8,7.5
20.98,13.3333
21.16,12.5
21.34,20
21.52,140
21.7,70.8333
21.88,14.1667
22.06,10
22.24,8.33333
22.42,6.66667
22.6,8.33333
22.78,9.16667
22.96,6.66667
23.14,9.16667
23.32,2.5
23.5,11.6667
23.68,5
23.86,7.5
24.04,5
24.22,11.6667
24.4,9.16667
24.58,29.1667
24.76,221.667
24.94,111.667
25.12,19.1667
25.3,10
25.48,10.8333
25.66,6.66667
25.84,15
26.02,25.8333
26.2,16.6667
26.38,15.8333
26.56,107.5
26.74,128.333
26.92,15.8333
27.1,10.8333
27.28,10
27.46,23.3333
27.64,49.1667
27.82,7.5
28,7.5
28.18,5
28.36,6.66667
28.54,8.33333
28.72,6.66667
28.9,18.3333
29.08,5.83333
29.26,8.33333
29.44,16.6667
29.62,76.6667
29.8,12.5
29.98,8.33333
30.16,10
30.34,10
30.52,6.66667
30.7,9.16667
30.88,5
31.06,7.5
31.24,9.16667
31.42,11.6667
31.6,12.5
31.78,55.8333
31.96,51.6667
32.14,296.667
32.32,100.833
32.5,15
32.68,10.8333
32.86,8.33333
33.04,8.33333
33.22,9.16667
33.4,5
33.58,20.8333
33.76,45.8333
33.94,92.5
34.12,27.5
34.3,155.833
34.48,31.6667
34.66,48.3333
34.84,515.833
35.02,92.5
35.2,25.8333
35.38,72.5
35.56,330.833
35.74,38.3333
35.92,15
36.1,10.8333
36.28,15.8333
36.46,83.3333
36.64,19.1667
36.82,10.8333
37,8.33333
37.18,4.16667
37.36,5.83333
37.54,5
37.72,10.8333
37.9,40
38.08,40.8333
38.26,8.33333
38.44,6.66667
38.62,5
38.8,11.6667
38.98,88.3333
39.16,36.6667
39.34,4.16667
39.52,8.33333
39.7,15
39.88,21.6667
40.06,5
40.24,16.6667
40.42,9.16667
40.6,10
40.78,18.3333
40.96,25.8333
41.14,5
41.32,4.16667
41.5,6.66667
41.68,24.1667
41.86,18.3333
42.04,3.33333
42.22,4.16667
42.4,2.5
42.58,5.83333
42.76,7.5
42.94,5.83333
43.12,3.33333
43.3,5
43.48,5.83333
43.66,4.16667
43.84,7.5
44.02,21.6667
44.2,112.5
44.38,104.167
44.56,15
44.74,7.5
44.92,6.66667
45.1,4.16667
45.28,12.5
45.46,17.5
45.64,9.16667
45.82,9.16667
46,10.8333
46.18,5
46.36,2.5
46.54,5.83333
46.72,5.83333
46.9,31.6667
47.08,6.66667
47.26,4.16667
47.44,6.66667
47.62,10
47.8,8.33333
47.98,3.33333
48.16,2.5
48.34,5
48.52,2.5
48.7,8.33333
48.88,29.1667
49.06,8.33333
49.24,11.6667
49.42,28.3333
49.6,54.1667
49.78,59.1667
49.96,10.8333
50.14,10
50.32,9.16667
50.5,25
50.68,19.1667
50.86,86.6667
51.04,74.1667
51.22,16.6667
51.4,10.8333
51.58,10
51.76,47.5
51.94,55
52.12,9.16667
52.3,9.16667
52.48,19.1667
52.66,15
52.84,5
53.02,5
53.2,6.66667
53.38,7.5
53.56,19.1667
53.74,15.8333
53.92,25
54.1,149.167
54.28,112.5
54.46,39.1667
54.64,12.5
54.82,28.3333
55,20
55.18,13.3333
55.36,7.5
55.54,10.8333
55.72,8.33333
55.9,93.3333
56.08,80
56.26,9.16667
56.44,7.5
56.62,8.33333
56.8,16.6667
56.98,21.6667
57.16,9.16667
57.34,10
57.52,12.5
57.7,2.5
57.88,15.8333
58.06,27.5
58.24,26.6667
58.42,14.1667
58.6,195.833
58.78,146.667
58.96,30
59.14,6.66667
59.32,7.5
59.5,10
59.68,7.5
59.86,29.1667
60,20.8333

File: Li2.5Zn0.8Ga0.2Sn3O8_1doyaki_20250127.txt
2theta,Intensity
10,6
10.18,6
10.36,7
10.54,4
10.72,10
10.9,9
11.08,7
11.26,6
11.44,6
11.62,7
11.8,8
11.98,6
12.16,4
12.34,11
12.52,7
12.7,6
12.88,7
13.06,12
13.24,25
13.42,5
13.6,5
13.78,6
13.96,5
14.14,5
14.32,7
14.5,5
14.68,13
14.86,4
15.04,8
15.22,5
15.4,2
15.58,4
15.76,4
15.94,6
16.12,12
16.3,8
16.48,14
16.66,19
16.84,54
17.02,15
17.2,14
17.38,16
17.56,16
17.74,35
17.92,103
18.1,23
18.28,13
18.46,13
18.64,14
18.82,20
19,105
19.18,275
19.36,62
19.54,161
19.72,14
19.9,10
20.08,12
20.26,18
20.44,44
20.62,10
20.8,10
20.98,9
21.16,13
21.34,62
21.52,244
21.7,30
21.88,12
22.06,13
22.24,10
22.42,10
22.6,9
22.78,6
22.96,9
23.14,9
23.32,6
23.5,9
23.68,7
23.86,8
24.04,8
24.22,10
24.4,20
24.58,59
24.76,373
24.94,30
25.12,19
25.3,9
25.48,6
25.66,19
25.84,28
26.02,22
26.2,9
26.38,13
26.56,66
26.74,76
26.92,13
27.1,12
27.28,16
27.46,66
27.64,18
27.82,6
28,4
28.18,7
28.36,7
28.54,14
28.72,8
28.9,17
29.08,10
29.26,20
29.44,98
29.62,23
29.8,9
29.98,9
30.16,6
30.34,9
30.52,8
30.7,9
30.88,8
31.06,6
31.24,7
31.42,9
31.6,35
31.78,78
31.96,107
32.14,429
32.32,30
32.5,11
32.68,9
32.86,12
33.04,9
33.22,9
33.4,13
33.58,61
33.76,22
33.94,16
34.12,162
34.3,72
34.48,44
34.66,374
34.84,306
35.02,41
35.2,54
35.38,456
35.56,80
35.74,24
35.92,15
36.1,12
36.28,33
36.46,70
36.64,11
36.82,12
37,6
37.18,8
37.36,7
37.54,3
37.72,19
37.9,33
38.08,2
38.26,6
38.44,6
38.62,7
38.8,73
38.98,58
39.16,13
39.34,12
39.52,11
39.7,24
39.88,8
40.06,9
40.24,17
40.42,9
40.6,10
40.78,44
40.96,8
41.14,7
41.32,3
41.5,15
41.68,34
41.86,12
42.04,7
42.22,5
42.4,4
42.58,5
42.76,5
42.94,5
43.12,2
43.3,5
43.48,6
43.66,8
43.84,46
44.02,67
44.2,149
44.38,21
44.56,12
44.74,5
44.92,6
45.1,7
45.28,23
45.46,12
45.64,9
45.82,8
46,7
46.18,4
46.36,6
46.54,7
46.72,28
46.9,9
47.08,6
47.26,6
47.44,11
47.62,13
47.8,6
47.98,4
48.16,7
48.34,6
48.52,7
48.7,26
48.88,14
49.06,8
49.24,36
49.42,61
49.6,80
49.78,19
49.96,9
50.14,15
50.32,22
50.5,20
50.68,42
50.86,113
51.04,37
51.22,15
51.4,7
51.58,10
51.76,8
51.94,6
52.12,6
52.3,20
52.48,11
52.66,6
52.84,5
53.02,6
53.2,11
53.38,24
53.56,20
53.74,35
53.92,163
54.1,134
54.28,42
54.46,13
54.64,10
54.82,20
55,18
55.18,9
55.36,8
55.54,13
55.72,121
55.9,93
56.08,17
56.26,9
56.44,5
56.62,15
56.8,26
56.98,13
57.16,9
57.34,8
57.52,7
57.7,4
57.88,15
58.06,21
58.24,23
58.42,170
58.6,189
58.78,39
58.96,13
59.14,2
59.32,9
59.5,17
59.68,15
59.86,20
60,22

File: Li2.5Zn0.8Ga0.2Sn3O8_Ar2ndyaki_20241122.txt
2theta,Intensity
10,5.33333
10.18,4.66667
10.36,5.33333
10.54,6.66667
10.72,8
10.9,5.33333
11.08,6.66667
11.26,4.66667
11.44,8
11.62,6
11.8,5.33333
11.98,6
12.16,7.33333
12.34,8
12.52,12.6667
12.7,8
12.88,8
13.06,18
13.24,24
13.42,5.33333
13.6,10.6667
13.78,6.66667
13.96,9.33333
14.14,6.66667
14.32,8.66667
14.5,6
14.68,6.66667
14.86,8.66667
15.04,8.66667
15.22,8.66667
15.4,11.3333
15.58,6.66667
15.76,6.66667
15.94,9.33333
16.12,14.6667
16.3,9.33333
16.48,12
16.66,25.3333
16.84,66
17.02,17.3333
17.2,17.3333
17.38,22.6667
17.56,17.3333
17.74,43.3333
17.92,124
18.1,22
18.28,11.3333
18.46,11.3333
18.64,15.3333
18.82,32
19,154
19.18,166.667
19.36,89.3333
19.54,128.667
19.72,18
19.9,12
20.08,12
20.26,16.6667
20.44,38
20.62,10
20.8,12.6667
20.98,12
21.16,20.6667
21.34,89.3333
21.52,208
21.7,23.3333
21.88,13.3333
22.06,10.6667
22.24,7.33333
22.42,11.3333
22.6,10.6667
22.78,5.33333
22.96,8
23.14,4.66667
23.32,10
23.5,6
23.68,6.66667
23.86,7.33333
24.04,11.3333
24.22,10.6667
24.4,24.6667
24.58,135.333
24.76,333.333
24.94,23.3333
25.12,14
25.3,7.33333
25.48,10
25.66,11.3333
25.84,33.3333
26.02,18
26.2,15.3333
26.38,22.6667
26.56,100.667
26.74,59.3333
26.92,13.3333
27.1,10.6667
27.28,18
27.46,69.3333
27.64,13.3333
27.82,7.33333
28,10.6667
28.18,6.66667
28.36,12.6667
28.54,5.33333
28.72,14
28.9,14
29.08,9.33333
29.26,22.6667
29.44,94
29.62,13.3333
29.8,9.33333
29.98,9.33333
30.16,10
30.34,10.6667
30.52,7.33333
30.7,8
30.88,6.66667
31.06,6
31.24,7.33333
31.42,14.6667
31.6,49.3333
31.78,56.6667
31.96,210.667
32.14,270.667
32.32,26.6667
32.5,6.66667
32.68,10.6667
32.86,9.33333
33.04,10
33.22,14
33.4,14.6667
33.58,63.3333
33.76,22.6667
33.94,24
34.12,200
34.3,50
34.48,52
34.66,565.333
34.84,182
35.02,34
35.2,86
35.38,440
35.56,46.6667
35.74,14.6667
35.92,14
36.1,16
36.28,54
36.46,48
36.64,10
36.82,10.6667
37,5.33333
37.18,9.33333
37.36,6
37.54,4.66667
37.72,20
37.9,15.3333
38.08,4.66667
38.26,4
38.44,10.6667
38.62,11.3333
38.8,94
38.98,38
39.16,8.66667
39.34,9.33333
39.52,16.6667
39.7,24
39.88,6.66667
40.06,10.6667
40.24,5.33333
40.42,4
40.6,25.3333
40.78,32.6667
40.96,8
41.14,5.33333
41.32,14.6667
41.5,24
41.68,30.6667
41.86,20
42.04,9.33333
42.22,7.33333
42.4,6.66667
42.58,7.33333
42.76,5.33333
42.94,2.66667
43.12,6
43.3,4
43.48,5.33333
43.66,8.66667
43.84,30.6667
44.02,122
44.2,124
44.38,17.3333
44.56,4.66667
44.74,6.66667
44.92,6
45.1,17.3333
45.28,23.3333
45.46,9.33333
45.64,14.6667
45.82,12.6667
46,9.33333
46.18,6
46.36,6.66667
46.54,7.33333
46.72,29.3333
46.9,10
47.08,7.33333
47.26,4
47.44,12
47.62,10
47.8,4.66667
47.98,4.66667
48.16,8
48.34,4
48.52,9.33333
48.7,25.3333
48.88,11.3333
49.06,8
49.24,36
49.42,92
49.6,68
49.78,11.3333
49.96,7.33333
50.14,16
50.32,28
50.5,17.3333
50.68,76
50.86,82.6667
51.04,25.3333
51.22,13.3333
51.4,8
51.58,6.66667
51.76,6
51.94,5.33333
52.12,6.66667
52.3,24.6667
52.48,7.33333
52.66,3.33333
52.84,4
53.02,8
53.2,14
53.38,20
53.56,13.3333
53.74,30
53.92,215.333
54.1,144
54.28,36
54.46,11.3333
54.64,6.66667
54.82,15.3333
55,21.3333
55.18,7.33333
55.36,12
55.54,20
55.72,135.333
55.9,73.3333
56.08,16
56.26,11.3333
56.44,12
56.62,15.3333
56.8,20
56.98,8
57.16,13.3333
57.34,7.33333
57.52,6.66667
57.7,10.6667
57.88,16.6667
58.06,16
58.24,18
58.42,261.333
58.6,195.333
58.78,34
58.96,11.3333
59.14,5.33333
59.32,8.66667
59.5,10
59.68,20.6667
59.86,18.6667
60,3.33333

File: Li2.5Zn0.8Ga0.2Sn3O8_H2kangen.txt
2theta,Intensity
10,7.33333
10.18,9.33333
10.36,4.66667
10.54,8.66667
10.72,6.66667
10.9,9.33333
11.08,8.66667
11.26,7.33333
11.44,8
11.62,6.66667
11.8,5.33333
11.98,5.33333
12.16,9.33333
12.34,10
12.52,8.66667
12.7,14
12.88,10.6667
13.06,13.3333
13.24,29.3333
13.42,8.66667
13.6,7.33333
13.78,6.66667
13.96,9.33333
14.14,6.66667
14.32,4.66667
14.5,2
14.68,6
14.86,5.33333
15.04,6
15.22,6.66667
15.4,8.66667
15.58,10
15.76,10
15.94,10
16.12,10
16.3,10
16.48,11.3333
16.66,14.6667
16.84,59.3333
17.02,18.6667
17.2,14.6667
17.38,17.3333
17.56,19.3333
17.74,32
17.92,136
18.1,41.3333
18.28,19.3333
18.46,11.3333
18.64,12.6667
18.82,18
19,85.3333
19.18,258
19.36,54
19.54,180
19.72,20
19.9,16
20.08,18
20.26,15.3333
20.44,42.6667
20.62,14
20.8,8
20.98,12
21.16,14.6667
21.34,58
21.52,239.333
21.7,27.3333
21.88,13.3333
22.06,16
22.24,8.66667
22.42,12
22.6,11.3333
22.78,7.33333
22.96,8
23.14,9.33333
23.32,7.33333
23.5,6.66667
23.68,5.33333
23.86,8.66667
24.04,8
24.22,12
24.4,14.6667
24.58,64
24.76,411.333
24.94,31.3333
25.12,12
25.3,13.3333
25.48,15.3333
25.66,10
25.84,21.3333
26.02,27.3333
26.2,8.66667
26.38,20
26.56,64
26.74,76
26.92,12.6667
27.1,6.66667
27.28,14
27.46,62.6667
27.64,12.6667
27.82,14
28,4.66667
28.18,8.66667
28.36,6.66667
28.54,10
28.72,14.6667
28.9,16
29.08,10
29.26,18
29.44,87.3333
29.62,26
29.8,12.6667
29.98,9.33333
30.16,12.6667
30.34,8.66667
30.52,8.66667
30.7,6.66667
30.88,11.3333
31.06,10.6667
31.24,11.3333
31.42,10
31.6,22.6667
31.78,69.3333
31.96,86.6667
32.14,434
32.32,34.6667
32.5,18
32.68,9.33333
32.86,10.6667
33.04,8.66667
33.22,10.6667
33.4,12.6667
33.58,47.3333
33.76,28.6667
33.94,14
34.12,130.667
34.3,93.3333
34.48,47.3333
34.66,292.667
34.84,326.667
35.02,36
35.2,46
35.38,421.333
35.56,92
35.74,26
35.92,20
36.1,16
36.28,21.3333
36.46,72
36.64,10.6667
36.82,16.6667
37,10.6667
37.18,4.66667
37.36,6.66667
37.54,5.33333
37.72,10.6667
37.9,30.6667
38.08,6
38.26,5.33333
38.44,6
38.62,6.66667
38.8,61.3333
38.98,65.3333
39.16,11.3333
39.34,6
39.52,8
39.7,30
39.88,8.66667
40.06,11.3333
40.24,10
40.42,10
40.6,9.33333
40.78,36
40.96,6.66667
41.14,4.66667
41.32,8
41.5,20
41.68,38
41.86,32
42.04,22.6667
42.22,6
42.4,9.33333
42.58,6
42.76,6
42.94,6
43.12,7.33333
43.3,4.66667
43.48,5.33333
43.66,8
43.84,25.3333
44.02,40
44.2,131.333
44.38,23.3333
44.56,8.66667
44.74,4.66667
44.92,7.33333
45.1,12
45.28,22.6667
45.46,8.66667
45.64,6.66667
45.82,16
46,12
46.18,5.33333
46.36,6
46.54,8
46.72,28.6667
46.9,14
47.08,5.33333
47.26,4.66667
47.44,8
47.62,10.6667
47.8,4
47.98,6
48.16,6
48.34,5.33333
48.52,8.66667
48.7,26
48.88,16.6667
49.06,2.66667
49.24,29.3333
49.42,52
49.6,86.6667
49.78,15.3333
49.96,8.66667
50.14,10
50.32,16.6667
50.5,25.3333
50.68,35.3333
50.86,101.333
51.04,20.6667
51.22,16
51.4,7.33333
51.58,6.66667
51.76,6
51.94,6
52.12,6
52.3,26
52.48,7.33333
52.66,4.66667
52.84,7.33333
53.02,7.33333
53.2,10.6667
53.38,24.6667
53.56,21.3333
53.74,28
53.92,128
54.1,122.667
54.28,32.6667
54.46,12.6667
54.64,6
54.82,9.33333
55,17.3333
55.18,10.6667
55.36,10
55.54,20.6667
55.72,107.333
55.9,92.6667
56.08,22
56.26,6
56.44,10
56.62,17.3333
56.8,23.3333
56.98,16
57.16,9.33333
57.34,8.66667
57.52,6.66667
57.7,3.33333
57.88,19.3333
58.06,19.3333
58.24,22.6667
58.42,133.333
58.6,174
58.78,47.3333
58.96,17.3333
59.14,10.6667
59.32,8
59.5,8.66667
59.68,19.3333
59.86,16.6667
60,17.3333

File: Li2.5ZnSn2.4In0.6O8_20250127.txt
2theta,Intensity
10,7.33333
10.18,6.66667
10.36,6.66667
10.54,8
10.72,6
10.9,9.33333
11.08,8
11.26,4
11.44,5.33333
11.62,8
11.8,8.66667
11.98,8
12.16,9.33333
12.34,6
12.52,7.33333
12.7,7.33333
12.88,8.66667
13.06,9.33333
13.24,7.33333
13.42,8.66667
13.6,8
13.78,8.66667
13.96,3.33333
14.14,7.33333
14.32,10.6667
14.5,4
14.68,4
14.86,10.6667
15.04,4
15.22,11.3333
15.4,6.66667
15.58,10.6667
15.76,12.6667
15.94,8
16.12,21.3333
16.3,14.6667
16.48,17.3333
16.66,42
16.84,18
17.02,20
17.2,21.3333
17.38,22.6667
17.56,36.6667
17.74,137.333
17.92,133.333
18.1,26
18.28,16
18.46,16
18.64,24.6667
18.82,112
19,210.667
19.18,124
19.36,80
19.54,30
19.72,20
19.9,22
20.08,16.6667
20.26,24.6667
20.44,20
20.62,18.6667
20.8,14
20.98,22
21.16,59.3333
21.34,45.3333
21.52,18
21.7,14
21.88,16.6667
22.06,12.6667
22.24,10.6667
22.42,12.6667
22.6,17.3333
22.78,13.3333
22.96,16
23.14,13.3333
23.32,8.66667
23.5,10.6667
23.68,8.66667
23.86,14
24.04,13.3333
24.22,18.6667
24.4,123.333
24.58,334
24.76,26.6667
24.94,20.6667
25.12,10.6667
25.3,13.3333
25.48,16.6667
25.66,20
25.84,12
26.02,11.3333
26.2,12.6667
26.38,48.6667
26.56,38.6667
26.74,14.6667
26.92,20.6667
27.1,30.6667
27.28,33.3333
27.46,15.3333
27.64,12.6667
27.82,12
28,12
28.18,16.6667
28.36,14.6667
28.54,16.6667
28.72,13.3333
28.9,14.6667
29.08,50
29.26,40.6667
29.44,16
29.62,16.6667
29.8,13.3333
29.98,12
30.16,13.3333
30.34,14.6667
30.52,9.33333
30.7,14
30.88,9.33333
31.06,12
31.24,12
31.42,32.6667
31.6,62.6667
31.78,279.333
31.96,201.333
32.14,26.6667
32.32,12
32.5,13.3333
32.68,14.6667
32.86,18
33.04,16.6667
33.22,32.6667
33.4,35.3333
33.58,45.3333
33.76,238
33.94,81.3333
34.12,55.3333
34.3,244.667
34.48,404.667
34.66,96
34.84,85.3333
35.02,425.333
35.2,86.6667
35.38,30
35.56,40
35.74,36
35.92,36
36.1,52
36.28,59.3333
36.46,12
36.64,11.3333
36.82,6.66667
37,8
37.18,8.66667
37.36,10
37.54,19.3333
37.72,13.3333
37.9,16
38.08,16.6667
38.26,13.3333
38.44,58
38.62,50.6667
38.8,13.3333
38.98,12.6667
39.16,14
39.34,15.3333
39.52,7.33333
39.7,13.3333
39.88,8.66667
40.06,5.33333
40.24,11.3333
40.42,15.3333
40.6,12
40.78,11.3333
40.96,8.66667
41.14,7.33333
41.32,16.6667
41.5,15.3333
41.68,37.3333
41.86,64.6667
42.04,15.3333
42.22,8
42.4,4.66667
42.58,6
42.76,8
42.94,12.6667
43.12,14.6667
43.3,22
43.48,20
43.66,58
43.84,118.667
44.02,25.3333
44.2,11.3333
44.38,9.33333
44.56,6
44.74,9.33333
44.92,10.6667
45.1,9.33333
45.28,13.3333
45.46,10
45.64,8.66667
45.82,26.6667
46,15.3333
46.18,22.6667
46.36,24.6667
46.54,8.66667
46.72,6
46.9,7.33333
47.08,8.66667
47.26,9.33333
47.44,10.6667
47.62,7.33333
47.8,9.33333
47.98,9.33333
48.16,13.3333
48.34,16.6667
48.52,10.6667
48.7,12.6667
48.88,49.3333
49.06,104.667
49.24,41.3333
49.42,13.3333
49.6,12.6667
49.78,22
49.96,16
50.14,16.6667
50.32,62.6667
50.5,74
50.68,13.3333
50.86,10.6667
51.04,9.33333
51.22,7.33333
51.4,8.66667
51.58,7.33333
51.76,15.3333
51.94,11.3333
52.12,8.66667
52.3,6
52.48,10
52.66,12
52.84,16
53.02,14
53.2,37.3333
53.38,76
53.56,129.333
53.74,38.6667
53.92,13.3333
54.1,15.3333
54.28,12
54.46,16
54.64,11.3333
54.82,14
55,25.3333
55.18,86
55.36,55.3333
55.54,38.6667
55.72,29.3333
55.9,32.6667
56.08,26
56.26,20
56.44,11.3333
56.62,9.33333
56.8,8.66667
56.98,10.6667
57.16,19.3333
57.34,47.3333
57.52,32
57.7,18
57.88,46.6667
58.06,266
58.24,134.667
58.42,18.6667
58.6,14
58.78,10
58.96,15.3333
59.14,22
59.32,12
59.5,16.6667
59.68,12
59.86,12.6667
60,18.6667

File: Li2Zn08Ga02Sn3O8_20241009.txt
2theta,Intensity
10,7.5
10.18,6.66667
10.36,10
10.54,4.16667
10.72,6.66667
10.9,7.5
11.08,10.8333
11.26,8.33333
11.44,6.66667
11.62,5.83333
11.8,4.16667
11.98,10
12.16,7.5
12.34,10.8333
12.52,8.33333
12.7,13.3333
12.88,8.33333
13.06,25.8333
13.24,13.3333
13.42,14.1667
13.6,6.66667
13.78,10
13.96,12.5
14.14,6.66667
14.32,7.5
14.5,6.66667
14.68,7.5
14.86,4.16667
15.04,5
15.22,7.5
15.4,14.1667
15.58,9.16667
15.76,8.33333
15.94,8.33333
16.12,8.33333
16.3,11.6667
16.48,14.1667
16.66,30
16.84,46.6667
17.02,19.1667
17.2,22.5
17.38,21.6667
17.56,25.8333
17.74,54.1667
17.92,72.5
18.1,13.3333
18.28,12.5
18.46,15
18.64,11.6667
18.82,35
19,208.333
19.18,59.1667
19.36,114.167
19.54,44.1667
19.72,15
19.9,11.6667
20.08,11.6667
20.26,19.1667
20.44,29.1667
20.62,10
20.8,5.83333
20.98,11.6667
21.16,22.5
21.34,131.667
21.52,85
21.7,18.3333
21.88,12.5
22.06,9.16667
22.24,11.6667
22.42,10.8333
22.6,10
22.78,9.16667
22.96,7.5
23.14,11.6667
23.32,7.5
23.5,7.5
23.68,7.5
23.86,9.16667
24.04,7.5
24.22,11.6667
24.4,35.8333
24.58,216.667
24.76,183.333
24.94,29.1667
25.12,14.1667
25.3,13.3333
25.48,10.8333
25.66,17.5
25.84,46.6667
26.02,11.6667
26.2,20
26.38,81.6667
26.56,277.5
26.74,36.6667
26.92,21.6667
27.1,18.3333
27.28,31.6667
27.46,39.1667
27.64,8.33333
27.82,6.66667
28,7.5
28.18,11.6667
28.36,8.33333
28.54,12.5
28.72,14.1667
28.9,16.6667
29.08,13.3333
29.26,32.5
29.44,76.6667
29.62,12.5
29.8,9.16667
29.98,6.66667
30.16,11.6667
30.34,11.6667
30.52,10.8333
30.7,8.33333
30.88,10
31.06,9.16667
31.24,15
31.42,10.8333
31.6,64.1667
31.78,40
31.96,300
32.14,175.833
32.32,29.1667
32.5,15.8333
32.68,10
32.86,11.6667
33.04,12.5
33.22,13.3333
33.4,28.3333
33.58,60.8333
33.76,137.5
33.94,85.8333
34.12,160
34.3,40.8333
34.48,76.6667
34.66,599.167
34.84,76.6667
35.02,46.6667
35.2,188.333
35.38,294.167
35.56,36.6667
35.74,21.6667
35.92,14.1667
36.1,15
36.28,70
36.46,34.1667
36.64,13.3333
36.82,11.6667
37,10.8333
37.18,9.16667
37.36,4.16667
37.54,13.3333
37.72,30.8333
37.9,55
38.08,15
38.26,4.16667
38.44,7.5
38.62,20
38.8,109.167
38.98,24.1667
39.16,6.66667
39.34,8.33333
39.52,22.5
39.7,16.6667
39.88,5.83333
40.06,20
40.24,8.33333
40.42,10
40.6,28.3333
40.78,19.1667
40.96,6.66667
41.14,5
41.32,1.66667
41.5,23.3333
41.68,18.3333
41.86,8.33333
42.04,7.5
42.22,7.5
42.4,5.83333
42.58,8.33333
42.76,5
42.94,7.5
43.12,5.83333
43.3,5
43.48,5.83333
43.66,13.3333
43.84,30.8333
44.02,145
44.2,80.8333
44.38,15
44.56,6.66667
44.74,5
44.92,7.5
45.1,20
45.28,13.3333
45.46,8.33333
45.64,14.1667
45.82,10.8333
46,2.5
46.18,8.33333
46.36,5
46.54,15.8333
46.72,22.5
46.9,4.16667
47.08,6.66667
47.26,5
47.44,11.6667
47.62,8.33333
47.8,7.5
47.98,4.16667
48.16,4.16667
48.34,5.83333
48.52,12.5
48.7,10.8333
48.88,3.33333
49.06,7.5
49.24,42.5
49.42,101.667
49.6,54.1667
49.78,7.5
49.96,8.33333
50.14,15.8333
50.32,22.5
50.5,19.1667
50.68,101.667
50.86,66.6667
51.04,25
51.22,9.16667
51.4,10.8333
51.58,24.1667
51.76,92.5
51.94,30.8333
52.12,12.5
52.3,20
52.48,10
52.66,7.5
52.84,5
53.02,7.5
53.2,16.6667
53.38,23.3333
53.56,18.3333
53.74,40.8333
53.92,193.333
54.1,98.3333
54.28,25
54.46,12.5
54.64,29.1667
54.82,35
55,17.5
55.18,14.1667
55.36,13.3333
55.54,33.3333
55.72,115.833
55.9,48.3333
56.08,11.6667
56.26,9.16667
56.44,12.5
56.62,25
56.8,13.3333
56.98,12.5
57.16,10
57.34,5
57.52,4.16667
57.7,5.83333
57.88,25
58.06,21.6667
58.24,31.6667
58.42,260.833
58.6,190.833
58.78,36.6667
58.96,14.1667
59.14,8.33333
59.32,7.5
59.5,13.3333
59.68,18.3333
59.86,18.3333
60,12.5