Folder: codespace_practice/XRD_graph/XRD_data

Note: README.md
# codespace_practice
Practice repository for github codespace

現在の状態　materials projectからデータを取り出すためのスクリプトコンテナ
ライブラリ管理状態は、poetryで管理されている
crabnetを使ったNNはこちらにはない

File: B2ZnBi2O7.txt
2theta,Intensity
10,6
10.18,4
10.36,6
10.54,7
10.72,6
10.9,4
11.08,4
11.26,5
11.44,4
11.62,9
11.8,3
11.98,4
12.16,6
12.34,6
12.52,6
12.7,2
12.88,5
13.06,4
13.24,3
13.42,4
13.6,5
13.78,4
13.96,3
14.14,5
14.32,3
14.5,7
14.68,7
14.86,8
15.04,7
15.22,3
15.4,5
15.58,7
15.76,6
15.94,7
16.12,7
16.3,10
16.48,3
16.66,9
16.84,6
17.02,3
17.2,12
17.38,12
17.56,5
17.74,5
17.92,17
18.1,18
18.28,8
18.46,5
18.64,7
18.82,5
19,9
19.18,6
19.36,2
19.54,4
19.72,4
19.9,6
20.08,5
20.26,8
20.44,7
20.62,4
20.8,6
20.98,8
21.16,5
21.34,7
21.52,5
21.7,8
21.88,5
22.06,6
22.24,3
22.42,7
22.6,8
22.78,18
22.96,34
23.14,6
23.32,7
23.5,4
23.68,3
23.86,4
24.04,5
24.22,14
24.4,13
24.58,18
24.76,30
24.94,8
25.12,7
25.3,11
25.48,23
25.66,23
25.84,23
26.02,7
26.2,14
26.38,2
26.56,11
26.74,6
26.92,8
27.1,6
27.28,1
27.46,18
27.64,88
27.82,46
28,8
28.18,9
28.36,6
28.54,8
28.72,8
28.9,5
29.08,12
29.26,37
29.44,82
29.62,10
29.8,4
29.98,6
30.16,7
30.34,19
30.52,23
30.7,6
30.88,6
31.06,7
31.24,10
31.42,81
31.6,37
31.78,79
31.96,11
32.14,7
32.32,14
32.5,11
32.68,15
32.86,57
33.04,42
33.22,10
33.4,5
33.58,9
33.76,7
33.94,5
34.12,9
34.3,9
34.48,4
34.66,4
34.84,5
35.02,6
35.2,7
35.38,7
35.56,3
35.74,4
35.92,4
36.1,6
36.28,9
36.46,11
36.64,34
36.82,11
37,11
37.18,3
37.36,8
37.54,14
37.72,8
37.9,12
38.08,4
38.26,8
38.44,4
38.62,4
38.8,8
38.98,5
39.16,7
39.34,6
39.52,7
39.7,11
39.88,3
40.06,7
40.24,5
40.42,8
40.6,8
40.78,2
40.96,4
41.14,5
41.32,4
41.5,15
41.68,25
41.86,8
42.04,7
42.22,5
42.4,7
42.58,6
42.76,7
42.94,3
43.12,8
43.3,6
43.48,12
43.66,30
43.84,14
44.02,8
44.2,8
44.38,10
44.56,4
44.74,3
44.92,4
45.1,8
45.28,34
45.46,49
45.64,25
45.82,12
46,6
46.18,9
46.36,5
46.54,8
46.72,3
46.9,7
47.08,6
47.26,8
47.44,6
47.62,9
47.8,8
47.98,6
48.16,13
48.34,16
48.52,5
48.7,20
48.88,13
49.06,21
49.24,16
49.42,10
49.6,3
49.78,11
49.96,10
50.14,11
50.32,16
50.5,15
50.68,12
50.86,4
51.04,8
51.22,10
51.4,6
51.58,5
51.76,10
51.94,13
52.12,16
52.3,22
52.48,72
52.66,37
52.84,13
53.02,20
53.2,23
53.38,10
53.56,11
53.74,6
53.92,17
54.1,51
54.28,31
54.46,10
54.64,7
54.82,9
55,6
55.18,7
55.36,4
55.54,9
55.72,39
55.9,24
56.08,12
56.26,9
56.44,16
56.62,14
56.8,13
56.98,11
57.16,21
57.34,24
57.52,6
57.7,6
57.88,6
58.06,8
58.24,3
58.42,5
58.6,13
58.78,13
58.96,12
59.14,12
59.32,7
59.5,8
59.68,9
59.86,8
60,5

File: B2ZnBi2O7_2kome.txt
2theta,Intensity
10,4
10.18,6
10.36,8
10.54,7
10.72,7
10.9,7
11.08,7
11.26,7
11.44,8
11.62,7
11.8,4
11.98,5
12.16,11
12.34,33
12.52,17
12.7,17
12.88,52
13.06,9
13.24,10
13.42,8
13.6,8
13.78,9
13.96,9
14.14,22
14.32,35
14.5,14
14.68,12
14.86,18
15.04,8
15.22,7
15.4,5
15.58,18
15.76,16
15.94,61
16.12,23
16.3,7
16.48,9
16.66,15
16.84,9
17.02,16
17.2,11
17.38,18
17.56,26
17.74,19
17.92,14
18.1,16
18.28,14
18.46,9
18.64,8
18.82,9
19,13
19.18,16
19.36,8
19.54,18
19.72,13
19.9,9
20.08,14
20.26,15
20.44,13
20.62,18
20.8,34
20.98,17
21.16,14
21.34,13
21.52,12
21.7,11
21.88,13
22.06,20
22.24,61
22.42,67
22.6,36
22.78,123
22.96,95
23.14,20
23.32,22
23.5,17
23.68,32
23.86,80
24.04,19
24.22,18
24.4,17
24.58,24
24.76,48
24.94,29
25.12,18
25.3,11
25.48,9
25.66,24
25.84,26
26.02,44
26.2,59
26.38,30
26.56,29
26.74,65
26.92,117
27.1,50
27.28,94
27.46,119
27.64,86
27.82,168
28,66
28.18,41
28.36,48
28.54,207
28.72,507
28.9,391
29.08,116
29.26,156
29.44,29
29.62,28
29.8,20
29.98,30
30.16,171
30.34,98
30.52,51
30.7,23
30.88,23
31.06,22
31.24,30
31.42,77
31.6,67
31.78,85
31.96,22
32.14,33
32.32,47
32.5,69
32.68,75
32.86,42
33.04,135
33.22,72
33.4,20
33.58,23
33.76,18
33.94,18
34.12,22
34.3,10
34.48,34
34.66,14
34.84,14
35.02,30
35.2,49
35.38,80
35.56,108
35.74,48
35.92,57
36.1,78
36.28,110
36.46,72
36.64,54
36.82,18
37,27
37.18,45
37.36,40
37.54,31
37.72,24
37.9,12
38.08,12
38.26,12
38.44,15
38.62,24
38.8,25
38.98,37
39.16,31
39.34,39
39.52,24
39.7,24
39.88,10
40.06,23
40.24,17
40.42,13
40.6,8
40.78,8
40.96,19
41.14,17
41.32,13
41.5,10
41.68,28
41.86,25
42.04,26
42.22,47
42.4,40
42.58,31
42.76,28
42.94,21
43.12,25
43.3,36
43.48,26
43.66,34
43.84,45
44.02,33
44.2,34
44.38,23
44.56,23
44.74,26
44.92,41
45.1,16
45.28,15
45.46,44
45.64,48
45.82,60
46,90
46.18,24
46.36,28
46.54,21
46.72,38
46.9,43
47.08,80
47.26,31
47.44,23
47.62,37
47.8,23
47.98,29
48.16,24
48.34,35
48.52,56
48.7,72
48.88,52
49.06,51
49.24,61
49.42,119
49.6,68
49.78,31
49.96,40
50.14,91
50.32,102
50.5,48
50.68,37
50.86,34
51.04,17
51.22,21
51.4,18
51.58,21
51.76,18
51.94,39
52.12,61
52.3,49
52.48,44
52.66,66
52.84,31
53.02,29
53.2,23
53.38,26
53.56,13
53.74,23
53.92,35
54.1,28
54.28,37
54.46,30
54.64,17
54.82,25
55,22
55.18,19
55.36,30
55.54,37
55.72,36
55.9,72
56.08,56
56.26,33
56.44,35
56.62,45
56.8,87
56.98,80
57.16,59
57.34,43
57.52,27
57.7,20
57.88,21
58.06,28
58.24,18
58.42,13
58.6,22
58.78,19
58.96,23
59.14,19
59.32,26
59.5,22
59.68,17
59.86,26
60,20

File: B2ZnBi2O7_xy_ICSD.csv
2theta,Intensity
0.1,0.0
0.3,0.0
0.5,0.0
0.7,0.0
0.9,0.0
1.1,0.0
1.3,0.0
1.5,0.0
1.7,0.0
1.9,0.0
2.1,0.0
2.3,0.0
2.5,0.0
2.7,0.0
2.9,0.0
3.1,0.0
3.3,0.0
3.5,0.0
3.7,0.0
3.9,0.0
4.1,0.0
4.3,0.0
4.5,0.0
4.7,0.0
4.9,0.0
5.1,0.0
5.3,0.0
5.5,0.0
5.7,0.0
5.9,0.0
6.1,0.0
6.3,0.0
6.5,0.0
6.7,0.0
6.9,0.0
7.1,0.0
7.3,0.0
7.5,0.0
7.7,0.0
7.9,0.0
8.1,0.0
8.3,0.0
8.5,0.0
8.7,0.0
8.9,0.0
9.1,0.0
9.3,0.0
9.5,0.0
9.7,0.0
9.9,0.0
10.1,0.0
10.3,0.0
10.5,0.0
10.7,0.0
10.9,0.0
11.1,0.0
11.3,6.0
11.5,18.0
11.7,2.0
11.9,0.0
12.1,0.0
12.3,0.0
12.5,0.0
12.7,0.0
12.9,0.0
13.1,0.0
13.3,0.0
13.5,0.0
13.7,0.0
13.9,0.0
14.1,0.0
14.3,0.0
14.5,0.0
14.7,0.0
14.9,0.0
15.1,0.0
15.3,0.0
15.5,0.0
15.7,0.0
15.9,3.0
16.1,16.0
16.3,18.0
16.5,11.0
16.7,0.0
16.9,0.0
17.1,0.0
17.3,0.0
17.5,0.0
17.7,2.0
17.9,379.0
18.1,3918.0
18.3,1688.0
18.5,23.0
18.7,0.0
18.9,0.0
19.1,0.0
19.3,0.0
19.5,0.0
19.7,0.0
19.9,0.0
20.1,0.0
20.3,0.0
20.5,0.0
20.7,0.0
20.9,0.0
21.1,0.0
21.3,1.0
21.5,12.0
21.7,3.0
21.9,0.0
22.1,0.0
22.3,0.0
22.5,0.0
22.7,9.0
22.9,738.0
23.1,1536.0
23.3,79.0
23.5,0.0
23.7,0.0
23.9,0.0
24.1,19.0
24.3,377.0
24.5,692.0
24.7,218.0
24.9,2.0
25.1,0.0
25.3,14.0
25.5,948.0
25.7,2255.0
25.9,1647.0
26.1,1068.0
26.3,20.0
26.5,0.0
26.7,0.0
26.9,0.0
27.1,0.0
27.3,0.0
27.5,0.0
27.7,0.0
27.9,0.0
28.1,0.0
28.3,0.0
28.5,0.0
28.7,0.0
28.9,0.0
29.1,8.0
29.3,1484.0
29.5,7116.0
29.7,897.0
29.9,0.0
30.1,0.0
30.3,0.0
30.5,0.0
30.7,0.0
30.9,0.0
31.1,0.0
31.3,82.0
31.5,2866.0
31.7,2704.0
31.9,3776.0
32.1,440.0
32.3,58.0
32.5,506.0
32.7,89.0
32.9,69.0
33.1,560.0
33.3,96.0
33.5,182.0
33.7,116.0
33.9,19.0
34.1,190.0
34.3,40.0
34.5,8.0
34.7,230.0
34.9,135.0
35.1,2.0
35.3,0.0
35.5,0.0
35.7,0.0
35.9,0.0
36.1,0.0
36.3,3.0
36.5,222.0
36.7,1212.0
36.9,1422.0
37.1,623.0
37.3,30.0
37.5,88.0
37.7,11.0
37.9,94.0
38.1,132.0
38.3,145.0
38.5,287.0
38.7,67.0
38.9,393.0
39.1,76.0
39.3,2.0
39.5,65.0
39.7,45.0
39.9,1.0
40.1,0.0
40.3,10.0
40.5,16.0
40.7,2.0
40.9,1.0
41.1,85.0
41.3,318.0
41.5,441.0
41.7,163.0
41.9,213.0
42.1,8.0
42.3,3.0
42.5,87.0
42.7,41.0
42.9,0.0
43.1,0.0
43.3,0.0
43.5,0.0
43.7,186.0
43.9,730.0
44.1,49.0
44.3,110.0
44.5,96.0
44.7,1.0
44.9,1.0
45.1,30.0
45.3,1212.0
45.5,1737.0
45.7,1055.0
45.9,390.0
46.1,159.0
46.3,2.0
46.5,72.0
46.7,133.0
46.9,5.0
47.1,6.0
47.3,1.0
47.5,4.0
47.7,165.0
47.9,117.0
48.1,30.0
48.3,773.0
48.5,564.0
48.7,334.0
48.9,751.0
49.1,28.0
49.3,0.0
49.5,43.0
49.7,169.0
49.9,350.0
50.1,78.0
50.3,507.0
50.5,508.0
50.7,492.0
50.9,149.0
51.1,132.0
51.3,90.0
51.5,21.0
51.7,4.0
51.9,71.0
52.1,906.0
52.3,249.0
52.5,1262.0
52.7,492.0
52.9,293.0
53.1,517.0
53.3,817.0
53.5,192.0
53.7,152.0
53.9,412.0
54.1,984.0
54.3,602.0
54.5,9.0
54.7,7.0
54.9,51.0
55.1,5.0
55.3,0.0
55.5,0.0
55.7,0.0
55.9,0.0
56.1,3.0
56.3,80.0
56.5,549.0
56.7,201.0
56.9,402.0
57.1,362.0
57.3,459.0
57.5,203.0
57.7,16.0
57.9,11.0
58.1,1.0
58.3,0.0
58.5,0.0
58.7,3.0
58.9,165.0
59.1,180.0
59.3,157.0
59.5,24.0
59.7,25.0
59.9,86.0
60.0,39.0

File: Li1.6Zn1.6Sn2.8O8_xy_ICSD.csv
2theta,Intensity
0.1,0.0
0.3,0.0
0.5,0.0
0.7,0.0
0.9,0.0
1.1,0.0
1.3,0.0
1.5,0.0
1.7,0.0
1.9,0.0
2.1,0.0
2.3,0.0
2.5,0.0
2.7,0.0
2.9,0.0
3.1,0.0
3.3,0.0
3.5,0.0
3.7,0.0
3.9,0.0
4.1,0.0
4.3,0.0
4.5,0.0
4.7,0.0
4.9,0.0
5.1,0.0
5.3,0.0
5.5,0.0
5.7,0.0
5.9,0.0
6.1,0.0
6.3,0.0
6.5,0.0
6.7,0.0
6.9,0.0
7.1,0.0
7.3,0.0
7.5,0.0
7.7,0.0
7.9,0.0
8.1,0.0
8.3,0.0
8.5,0.0
8.7,0.0
8.9,0.0
9.1,0.0
9.3,0.0
9.5,0.0
9.7,0.0
9.9,0.0
10.1,0.0
10.3,0.0
10.5,0.0
10.7,0.0
10.9,0.0
11.1,0.0
11.3,0.0
11.5,0.0
11.7,0.0
11.9,0.0
12.1,0.0
12.3,0.0
12.5,0.0
12.7,0.0
12.9,0.0
13.1,0.0
13.3,0.0
13.5,0.0
13.7,0.0
13.9,0.0
14.1,0.0
14.3,0.0
14.5,0.0
14.7,0.0
14.9,0.0
15.1,0.0
15.3,0.0
15.5,0.0
15.7,0.0
15.9,0.0
16.1,0.0
16.3,0.0
16.5,5.0
16.7,689.0
16.9,2573.0
17.1,272.0
17.3,0.0
17.5,0.0
17.7,127.0
17.9,2085.0
18.1,941.0
18.3,12.0
18.5,0.0
18.7,0.0
18.9,727.0
19.1,7835.0
19.3,2265.0
19.5,18.0
19.7,0.0
19.9,0.0
20.1,0.0
20.3,0.0
20.5,0.0
20.7,0.0
20.9,0.0
21.1,0.0
21.3,0.0
21.5,0.0
21.7,0.0
21.9,0.0
22.1,0.0
22.3,0.0
22.5,0.0
22.7,0.0
22.9,0.0
23.1,0.0
23.3,0.0
23.5,0.0
23.7,0.0
23.9,0.0
24.1,0.0
24.3,0.0
24.5,1033.0
24.7,13337.0
24.9,4073.0
25.1,29.0
25.3,0.0
25.5,0.0
25.7,0.0
25.9,0.0
26.1,0.0
26.3,0.0
26.5,0.0
26.7,0.0
26.9,0.0
27.1,0.0
27.3,0.0
27.5,0.0
27.7,0.0
27.9,0.0
28.1,0.0
28.3,0.0
28.5,0.0
28.7,0.0
28.9,0.0
29.1,13.0
29.3,1396.0
29.5,3249.0
29.7,162.0
29.9,0.0
30.1,0.0
30.3,0.0
30.5,0.0
30.7,0.0
30.9,0.0
31.1,0.0
31.3,0.0
31.5,0.0
31.7,0.0
31.9,3463.0
32.1,14757.0
32.3,1274.0
32.5,0.0
32.7,0.0
32.9,0.0
33.1,0.0
33.3,0.0
33.5,0.0
33.7,0.0
33.9,537.0
34.1,6729.0
34.3,1641.0
34.5,3222.0
34.7,23789.0
34.9,3378.0
35.1,675.0
35.3,13896.0
35.5,5435.0
35.7,40.0
35.9,0.0
36.1,98.0
36.3,3043.0
36.5,1753.0
36.7,19.0
36.9,0.0
37.1,0.0
37.3,0.0
37.5,0.0
37.7,0.0
37.9,0.0
38.1,0.0
38.3,0.0
38.5,17.0
38.7,1569.0
38.9,2533.0
39.1,73.0
39.3,0.0
39.5,0.0
39.7,0.0
39.9,0.0
40.1,9.0
40.3,181.0
40.5,63.0
40.7,0.0
40.9,0.0
41.1,0.0
41.3,0.0
41.5,0.0
41.7,0.0
41.9,0.0
42.1,0.0
42.3,0.0
42.5,0.0
42.7,0.0
42.9,0.0
43.1,0.0
43.3,0.0
43.5,0.0
43.7,0.0
43.9,829.0
44.1,5759.0
44.3,653.0
44.5,0.0
44.7,0.0
44.9,0.0
45.1,0.0
45.3,0.0
45.5,53.0
45.7,300.0
45.9,27.0
46.1,0.0
46.3,0.0
46.5,148.0
46.7,426.0
46.9,19.0
47.1,0.0
47.3,22.0
47.5,88.0
47.7,6.0
47.9,0.0
48.1,0.0
48.3,0.0
48.5,0.0
48.7,0.0
48.9,0.0
49.1,257.0
49.3,2181.0
49.5,4511.0
49.7,262.0
49.9,0.0
50.1,0.0
50.3,0.0
50.5,297.0
50.7,4653.0
50.9,1090.0
51.1,0.0
51.3,0.0
51.5,0.0
51.7,0.0
51.9,2.0
52.1,282.0
52.3,517.0
52.5,14.0
52.7,0.0
52.9,6.0
53.1,59.0
53.3,8.0
53.5,0.0
53.7,722.0
53.9,7639.0
54.1,1175.0
54.3,0.0
54.5,0.0
54.7,0.0
54.9,0.0
55.1,0.0
55.3,0.0
55.5,995.0
55.7,5781.0
55.9,979.0
56.1,15.0
56.3,0.0
56.5,0.0
56.7,0.0
56.9,0.0
57.1,0.0
57.3,0.0
57.5,0.0
57.7,0.0
57.9,0.0
58.1,26.0
58.3,4449.0
58.5,10640.0
58.7,519.0
58.9,70.0
59.1,0.0
59.3,0.0
59.5,2.0
59.7,78.0
59.9,63.0
60.0,13.0

File: Li2.5Zn0.8Ga0.2Sn3O8_20241017.txt
2theta,Intensity
10,10.8333
10.18,5.83333
10.36,6.66667
10.54,6.66667
10.72,8.33333
10.9,5.83333
11.08,8.33333
11.26,5.83333
11.44,8.33333
11.62,6.66667
11.8,6.66667
11.98,7.5
12.16,6.66667
12.34,8.33333
12.52,16.6667
12.7,7.5
12.88,6.66667
13.06,20.8333
13.24,21.6667
13.42,6.66667
13.6,10
13.78,10.8333
13.96,5
14.14,10.8333
14.32,9.16667
14.5,5.83333
14.68,8.33333
14.86,3.33333
15.04,4.16667
15.22,10
15.4,10
15.58,9.16667
15.76,9.16667
15.94,13.3333
16.12,15
16.3,11.6667
16.48,12.5
16.66,17.5
16.84,65
17.02,12.5
17.2,27.5
17.38,19.1667
17.56,28.3333
17.74,54.1667
17.92,108.333
18.1,19.1667
18.28,17.5
18.46,15.8333
18.64,16.6667
18.82,42.5
19,210
19.18,108.333
19.36,110
19.54,85.8333
19.72,16.6667
19.9,16.6667
20.08,15
20.26,28.3333
20.44,40
20.62,10.8333
20.8,9.16667
20.98,13.3333
21.16,26.6667
21.34,130
21.52,141.667
21.7,25
21.88,11.6667
22.06,11.6667
22.24,7.5
22.42,9.16667
22.6,9.16667
22.78,7.5
22.96,10
23.14,11.6667
23.32,10.8333
23.5,14.1667
23.68,10
23.86,12.5
24.04,15
24.22,12.5
24.4,30.8333
24.58,186.667
24.76,236.667
24.94,24.1667
25.12,17.5
25.3,16.6667
25.48,10
25.66,15.8333
25.84,50.8333
26.02,18.3333
26.2,18.3333
26.38,25.8333
26.56,125.833
26.74,34.1667
26.92,14.1667
27.1,10
27.28,18.3333
27.46,56.6667
27.64,10
27.82,10
28,13.3333
28.18,9.16667
28.36,5
28.54,8.33333
28.72,18.3333
28.9,10.8333
29.08,9.16667
29.26,31.6667
29.44,108.333
29.62,14.1667
29.8,10
29.98,8.33333
30.16,14.1667
30.34,12.5
30.52,11.6667
30.7,7.5
30.88,7.5
31.06,8.33333
31.24,13.3333
31.42,11.6667
31.6,52.5
31.78,54.1667
31.96,271.667
32.14,221.667
32.32,28.3333
32.5,11.6667
32.68,15
32.86,15.8333
33.04,11.6667
33.22,10
33.4,21.6667
33.58,57.5
33.76,22.5
33.94,37.5
34.12,190
34.3,49.1667
34.48,71.6667
34.66,639.167
34.84,120
35.02,47.5
35.2,133.333
35.38,384.167
35.56,40
35.74,23.3333
35.92,26.6667
36.1,15.8333
36.28,72.5
36.46,50.8333
36.64,17.5
36.82,13.3333
37,13.3333
37.18,6.66667
37.36,10
37.54,5.83333
37.72,23.3333
37.9,20.8333
38.08,9.16667
38.26,8.33333
38.44,5.83333
38.62,15.8333
38.8,95
38.98,33.3333
39.16,7.5
39.34,3.33333
39.52,26.6667
39.7,17.5
39.88,5.83333
40.06,8.33333
40.24,13.3333
40.42,5
40.6,25
40.78,28.3333
40.96,10
41.14,8.33333
41.32,10
41.5,36.6667
41.68,25
41.86,25
42.04,9.16667
42.22,2.5
42.4,5.83333
42.58,3.33333
42.76,5.83333
42.94,6.66667
43.12,4.16667
43.3,8.33333
43.48,7.5
43.66,19.1667
43.84,32.5
44.02,138.333
44.2,105.833
44.38,13.3333
44.56,8.33333
44.74,8.33333
44.92,5.83333
45.1,21.6667
45.28,23.3333
45.46,10
45.64,15.8333
45.82,12.5
46,7.5
46.18,4.16667
46.36,5.83333
46.54,16.6667
46.72,25
46.9,5.83333
47.08,9.16667
47.26,8.33333
47.44,11.6667
47.62,6.66667
47.8,4.16667
47.98,3.33333
48.16,3.33333
48.34,9.16667
48.52,12.5
48.7,18.3333
48.88,13.3333
49.06,8.33333
49.24,54.1667
49.42,108.333
49.6,57.5
49.78,13.3333
49.96,15.8333
50.14,11.6667
50.32,32.5
50.5,14.1667
50.68,100.833
50.86,82.5
51.04,29.1667
51.22,13.3333
51.4,6.66667
51.58,5
51.76,6.66667
51.94,5
52.12,9.16667
52.3,20.8333
52.48,5.83333
52.66,5.83333
52.84,7.5
53.02,5.83333
53.2,15.8333
53.38,21.6667
53.56,20.8333
53.74,41.6667
53.92,201.667
54.1,115
54.28,35
54.46,11.6667
54.64,10.8333
54.82,25
55,18.3333
55.18,12.5
55.36,14.1667
55.54,28.3333
55.72,118.333
55.9,69.1667
56.08,19.1667
56.26,12.5
56.44,9.16667
56.62,24.1667
56.8,18.3333
56.98,11.6667
57.16,10.8333
57.34,8.33333
57.52,10.8333
57.7,10
57.88,20.8333
58.06,19.1667
58.24,37.5
58.42,294.167
58.6,192.5
58.78,37.5
58.96,19.1667
59.14,3.33333
59.32,11.6667
59.5,10
59.68,16.6667
59.86,12.5
60,13.3333

File: Li2.5ZnSn3O8_20241112.txt
2theta,Intensity
10,4
10.18,6.66667
10.36,4
10.54,5.33333
10.72,6
10.9,5.33333
11.08,8
11.26,8
11.44,6.66667
11.62,8
11.8,5.33333
11.98,6.66667
12.16,7.33333
12.34,10
12.52,8
12.7,8.66667
12.88,9.33333
13.06,26
13.24,12.6667
13.42,8
13.6,7.33333
13.78,4
13.96,7.33333
14.14,7.33333
14.32,8.66667
14.5,8.66667
14.68,3.33333
14.86,11.3333
15.04,10
15.22,4.66667
15.4,10
15.58,10
15.76,8.66667
15.94,12
16.12,10
16.3,11.3333
16.48,19.3333
16.66,37.3333
16.84,46
17.02,22.6667
17.2,22
17.38,20
17.56,22
17.74,78
17.92,88
18.1,16.6667
18.28,11.3333
18.46,10
18.64,16
18.82,46
19,190
19.18,53.3333
19.36,146.667
19.54,28
19.72,15.3333
19.9,14
20.08,13.3333
20.26,27.3333
20.44,24.6667
20.62,11.3333
20.8,14.6667
20.98,14
21.16,32
21.34,190
21.52,56
21.7,14.6667
21.88,14.6667
22.06,12.6667
22.24,9.33333
22.42,10.6667
22.6,7.33333
22.78,10
22.96,5.33333
23.14,11.3333
23.32,10.6667
23.5,11.3333
23.68,10.6667
23.86,8
24.04,10
24.22,18
24.4,34
24.58,338.667
24.76,100.667
24.94,26
25.12,14
25.3,10
25.48,13.3333
25.66,24
25.84,43.3333
26.02,15.3333
26.2,20
26.38,41.3333
26.56,134
26.74,18
26.92,10
27.1,13.3333
27.28,68.6667
27.46,24.6667
27.64,12.6667
27.82,12.6667
28,10
28.18,12.6667
28.36,11.3333
28.54,10
28.72,24
28.9,14.6667
29.08,14.6667
29.26,85.3333
29.44,47.3333
29.62,14.6667
29.8,10.6667
29.98,11.3333
30.16,8.66667
30.34,6.66667
30.52,10
30.7,8.66667
30.88,8
31.06,10
31.24,6.66667
31.42,17.3333
31.6,62
31.78,55.3333
31.96,425.333
32.14,80.6667
32.32,18.6667
32.5,10.6667
32.68,10
32.86,12.6667
33.04,9.33333
33.22,8.66667
33.4,26.6667
33.58,48
33.76,15.3333
33.94,112
34.12,100
34.3,57.3333
34.48,196.667
34.66,450
34.84,52.6667
35.02,44.6667
35.2,356
35.38,156.667
35.56,23.3333
35.74,16
35.92,22.6667
36.1,18
36.28,85.3333
36.46,16
36.64,18.6667
36.82,9.33333
37,6.66667
37.18,7.33333
37.36,7.33333
37.54,8.66667
37.72,23.3333
37.9,8.66667
38.08,5.33333
38.26,9.33333
38.44,9.33333
38.62,38.6667
38.8,66.6667
38.98,11.3333
39.16,10.6667
39.34,7.33333
39.52,21.3333
39.7,8
39.88,8
40.06,14
40.24,12
40.42,13.3333
40.6,30
40.78,16
40.96,4.66667
41.14,9.33333
41.32,9.33333
41.5,39.3333
41.68,26.6667
41.86,32
42.04,10
42.22,4.66667
42.4,2.66667
42.58,7.33333
42.76,2.66667
42.94,6
43.12,5.33333
43.3,5.33333
43.48,8.66667
43.66,32
43.84,40.6667
44.02,146.667
44.2,23.3333
44.38,8.66667
44.56,8.66667
44.74,6.66667
44.92,8
45.1,24.6667
45.28,10
45.46,13.3333
45.64,16.6667
45.82,17.3333
46,8
46.18,6.66667
46.36,8.66667
46.54,26.6667
46.72,8.66667
46.9,6
47.08,4.66667
47.26,5.33333
47.44,11.3333
47.62,5.33333
47.8,4.66667
47.98,6.66667
48.16,4
48.34,8
48.52,26
48.7,16
48.88,10.6667
49.06,19.3333
49.24,61.3333
49.42,79.3333
49.6,19.3333
49.78,10.6667
49.96,10.6667
50.14,22
50.32,26
50.5,30
50.68,99.3333
50.86,36
51.04,14.6667
51.22,6
51.4,6
51.58,6
51.76,7.33333
51.94,6
52.12,20.6667
52.3,14.6667
52.48,8.66667
52.66,8.66667
52.84,9.33333
53.02,12
53.2,18.6667
53.38,20
53.56,26
53.74,126
53.92,134.667
54.1,46.6667
54.28,10.6667
54.46,8.66667
54.64,10
54.82,18.6667
55,10
55.18,11.3333
55.36,17.3333
55.54,107.333
55.72,75.3333
55.9,24.6667
56.08,6.66667
56.26,10
56.44,8.66667
56.62,17.3333
56.8,10.6667
56.98,11.3333
57.16,4.66667
57.34,2
57.52,7.33333
57.7,9.33333
57.88,22
58.06,20
58.24,98.6667
58.42,191.333
58.6,74
58.78,16
58.96,10.6667
59.14,10.6667
59.32,12
59.5,16
59.68,20
59.86,10
60,8